,ax,ay,az,gx,gy,gz,mx,my,mz,a_total,g_total,m_total,lat,long
12:15:51:60,0.5581207,0.49621582,9.361588,0.07418823,0.29019165,-0.38723755,52.349854,-50.549316,-260.85052,9.391328912221676,0.4895589926967514,270.8112522517475,44.4349375,26.0476015
12:15:51:61,0.41207886,0.44354248,9.40947,0.03265381,0.32107544,-0.37765503,52.368546,-50.530623999999996,-260.9067875,9.42892701209016,0.49676858914690913,270.8655879263513,44.43493749999999,26.047601578717067
12:15:51:62,0.3785553,0.4650879,9.435806,0.018798828,0.3242798,-0.36698914,52.387237999999996,-50.511932,-260.963055,9.454842449217253,0.49009367829033784,270.91992360095503,44.43493749999999,26.047601657434136
12:15:51:63,0.46809691999999997,0.52494202,9.4678892,0.0343536376,0.316397106,-0.364859012,52.40593,-50.49324,-261.0193225,9.496275903028236,0.48533849884343566,270.9742592755588,44.43493749999998,26.047601736151204
12:15:51:64,0.55763854,0.58479614,9.499972399999999,0.0499084472,0.308514412,-0.362728884,52.424622,-50.474548,-261.07559000000003,9.537709356839219,0.48058331939653354,271.0285949501626,44.43493749999998,26.04760181486827
12:15:51:65,0.64718016,0.64465026,9.5320556,0.06546325680000001,0.300631718,-0.360598756,52.443314,-50.455856,-261.1318575,9.5791428106502,0.47582813994963136,271.0829306247664,44.434937499999975,26.047601893585338
12:15:51:66,0.73672178,0.70450438,9.564138799999998,0.0810180664,0.292749024,-0.358468628,52.462006,-50.437163999999996,-261.188125,9.620576264461183,0.47107296050272923,271.13726629937014,44.43493749999997,26.047601972302406
12:15:51:67,0.8262634,0.7643585,9.596222,0.096572876,0.28486633,-0.3563385,52.480698,-50.418472,-261.2443925,9.662009718272166,0.46631778105582705,271.1916019739739,44.43493749999997,26.047602051019474
12:15:51:68,0.7520447,0.65901184,9.081467,0.06460571,0.36369324,-0.36273193,52.49939,-50.39978,-261.30066,9.136351060907591,0.5177075657432743,271.2459376485777,44.43493749999996,26.047602129736543
12:15:51:69,0.65148926,0.6231079,8.861206,-0.02168274,0.49684143,-0.36380005,52.874756,-50.025177,-261.00005999999996,8.90694523870972,0.6161753193356214,270.96047603850866,44.434937499999954,26.04760220845361
12:15:51:70,0.7640228,0.63986206,8.6936035,-0.093048096,0.537323,-0.36698914,53.250122,-49.650574,-260.69946,8.750536904096773,0.6573088949467859,270.67501442843957,44.434937499999954,26.047602287170676
12:15:51:71,0.7831726,0.6278839,8.645721,-0.17933655,0.52241516,-0.3765869,53.475189,-50.6256105,-260.84976,8.703797396717766,0.6685034710570605,271.04618009963986,44.43493749999995,26.047602365887744
12:15:51:72,0.7616272,0.60154724,8.547562,-0.23153687,0.49684143,-0.38298035,53.700256,-51.600647,-261.00006,8.602485176829743,0.6686812971961787,271.4173457708401,44.43493749999995,26.047602444604813
12:15:51:73,0.7903595,0.56803894,8.73909,-0.4147644,0.3839264,-0.38723755,54.00034566666667,-50.500488000000004,-260.95021333333335,8.79312404124362,0.685114521999295,271.22662754389114,44.43493749999994,26.04760252332188
12:15:51:74,0.79515076,0.5297241,8.885147,-0.47229004,0.34664917,-0.38298035,54.30043533333333,-49.400329,-260.9003666666667,8.936370044087163,0.6999267657626854,271.03590931694214,44.43493749999993,26.04760260203895
12:15:51:75,1.0249939,0.42437744,9.782974,-0.5809479,0.26675415,-0.3712616,54.600525,-48.30017,-260.85052,9.845673617954953,0.7392519291088746,270.8451910899932,44.43493749999993,26.047602680756018
12:15:51:76,0.9866791,0.4076233,10.6736145,-0.5734863,0.26568604,-0.36698914,55.05066,-50.250244,-259.64966,10.726869948670485,0.7308602034702062,270.1362769540787,44.434937499999926,26.047602759473087
12:15:51:77,0.78556824,0.35734558,10.807678,-0.5447235,0.27954102,-0.36166382,55.425263,-49.6498105,-260.624695,10.842080846171838,0.7111030811435729,271.04045658423627,44.434937499999926,26.04760283819015
12:15:51:78,0.43122864,0.28312683,11.054291,-0.39665222,0.28059387,-0.2828369,55.799866,-49.049377,-261.59973,11.06632136052912,0.5621944641439609,271.9446362143938,44.43493749999992,26.04760291690722
12:15:51:79,0.44319153,0.3214264,10.929794,-0.25390625,0.2869873,-0.19761658,55.5000305,-48.82431,-260.92453,10.943497180760668,0.4311408201982838,271.1931206059803,44.43493749999991,26.04760299562429
12:15:51:80,0.5581207,0.36453247,10.486862,-0.09837341,0.3093567,-0.10920715,55.200195,-48.599243,-260.24933,10.508028228192805,0.3424983171360709,270.44160499756686,44.43493749999991,26.047603074341357
12:15:51:81,0.7759857,0.5417023,9.830856,0.014541626,0.29977417,-0.041030884,55.200195,-48.599243,-260.24933,9.87630117408161,0.3029183806369865,270.44160499756686,44.434937499999904,26.047603153058425
12:15:51:82,0.9866791,0.754776,9.15329,0.06993103,0.26461792,0.0069122314,55.200195,-48.599243,-260.24933,9.237204137651869,0.2737896482427969,270.44160499756686,44.434937499999904,26.047603231775494
12:15:51:83,1.230896,0.99420166,8.537979,0.07206726,0.19325256,0.019699097,55.200195,-48.599243,-260.24933,8.683353459810544,0.20719144850373677,270.44160499756686,44.4349374999999,26.047603310492562
12:15:51:84,1.3745422,1.1402435,8.138153,0.02305603,0.101638794,0.012237549,55.875397500000005,-48.299408,-261.299895,8.331809872427606,0.10493704098488169,271.53816495745366,44.43493749999989,26.047603389209627
12:15:51:85,1.4679108,1.3317871,8.00647,-0.067489624,-0.018737793,-0.014389038,56.5506,-47.999573,-262.35046,8.248150147601766,0.07150523511420454,272.6347249173405,44.43493749999989,26.047603467926695
12:15:51:86,1.472702,1.4084015,8.00647,-0.1633606,-0.15509033,-0.054870605,56.100465,-48.6747745,-261.52495999999996,8.261719423153165,0.2318414962532267,271.8686330213259,44.43493749999988,26.047603546643764
12:15:51:87,1.3434143,1.4562836,8.241104,-0.24537659,-0.2935791,-0.0974884,55.65033,-49.349976,-260.69946,8.475925851722007,0.3948447125281002,271.10254112531123,44.434937499999876,26.047603625360832
12:15:51:88,1.0752716,1.2982635,9.043152,-0.29545593,-0.39370728,-0.11878967,56.5506,-48.750305,-259.3506,9.19892902594116,0.5063700372216667,269.8838570909958,44.434937499999876,26.0476037040779
12:15:51:89,1.0273895,1.2240448,9.29216,-0.29545593,-0.4459076,-0.11453247,56.475068,-49.4255065,-260.17533000000003,9.428576367761853,0.5470333454134454,270.7837666543075,44.43493749999987,26.04760378279497
12:15:51:90,0.780777,1.101944,9.859589,-0.25497437,-0.46401978,-0.092163086,56.399536,-50.100708,-261.00006,9.951652553811654,0.5374200591801434,271.6836762176192,44.43493749999987,26.047603861512037
12:15:51:91,0.7137451,1.0899658,10.010422,-0.17826843,-0.4693451,-0.054870605,56.24949066666667,-49.850463999999995,-260.7498166666667,10.094850475912343,0.5050497394531959,271.36623745967336,44.43493749999986,26.047603940229102
12:15:51:92,0.720932,1.2024994,9.921829,-0.09625244,-0.4736023,-0.02078247,56.09944533333333,-49.60022,-260.49957333333333,10.02040111277315,0.4837308981557251,271.04879870172755,44.434937499999855,26.04760401894617
12:15:51:93,0.804718,1.3006592,9.608185,-0.03765869,-0.44483948,-0.0005493164,55.9494,-49.349976,-260.24933,9.729157435682376,0.4464310043530734,270.7313599437817,44.434937499999855,26.04760409766324
12:15:51:94,0.87654114,1.362915,9.474121,-0.022750854,-0.41075134,-0.0005493164,54.974365,-48.9746095,-260.774995,9.611702783064949,0.41138129079727515,270.9715878235195,44.43493749999985,26.047604176380307
12:15:51:95,1.0297699,1.5831757,9.196381,-0.041915894,-0.30316162,-0.021850586,53.99933,-48.599243,-261.30066,9.388306281815561,0.3068246374061038,271.21181570325723,44.43493749999985,26.047604255097376
12:15:51:96,1.0920258,1.7268219,9.117386,-0.08026123,-0.2147522,-0.04421997,54.899597,-48.89984,-261.00006,9.343509067538879,0.2334861413291029,271.15713419121323,44.43493749999984,26.047604333814444
12:15:51:97,1.0800476,1.769928,9.086258,-0.12820435,-0.13378906,-0.06340027,55.24953133333333,-48.54990566666667,-261.00006,9.31983006207805,0.19584550587307076,271.16623134791854,44.43493749999983,26.04760441253151
12:15:51:98,0.8885193,1.793869,9.275391,-0.18252563,-0.11141968,-0.08149719,55.59946566666667,-48.19997133333333,-261.00006,9.488957305126549,0.22884873317564028,271.1753285046239,44.43493749999983,26.047604491248578
12:15:51:99,0.78556824,1.7914734,9.419052,-0.20809937,-0.13272095,-0.078308105,55.9494,-47.850037,-261.00006,9.620033003129889,0.25894470002684056,271.1844256613292,44.434937499999826,26.047604569965646
12:15:52:00,0.63952637,1.7172546,9.68959,-0.19958496,-0.17106628,-0.06340027,55.1994315,-49.124908500000004,-260.47516,9.861344315418997,0.27040233476675624,270.75787000650234,44.43493749999982,26.047604648682714
12:15:52:01,0.4575653,1.5712128,10.04393,-0.15589905,-0.22433472,-0.03250122,54.449463,-50.39978,-259.95026,10.176374870824478,0.2751125400447411,270.3313143516755,44.43493749999982,26.047604727399783
12:15:52:02,0.41685486,1.5735931,10.149277,-0.08772278,-0.28611755,0.018630981,54.8995965,-49.349975,-260.02503,10.278997365570351,0.29984271210411845,270.30299934403877,44.43493749999981,26.04760480611685
12:15:52:03,0.5293884,1.5999298,10.204346,-0.013153076,-0.33406067,0.06550598,55.34973,-48.30017,-260.0998,10.342567608224691,0.3406766326956856,270.2746843364021,44.43493749999981,26.04760488483392
12:15:52:04,0.5916443,1.6190948,10.161255,0.059280396,-0.36175537,0.10171509,55.200195,-48.30017,-259.87473,10.306435568329846,0.3804301152740958,270.0275081612972,44.434937499999805,26.047604963550985
12:15:52:05,0.8621826,1.7842865,10.225891,0.12106323,-0.372406,0.120895386,55.05066,-48.30017,-259.64966,10.416135746701174,0.4098270718853525,269.7803319861922,44.4349374999998,26.047605042268053
12:15:52:06,0.9531555,1.829773,10.218704,0.18711853,-0.34684753,0.12408447,55.350494999999995,-48.0751035,-260.47515999999996,10.4248974133238,0.4131749133619353,270.59630088246456,44.4349374999998,26.04760512098512
12:15:52:07,1.0608978,1.8393555,10.173218,0.21800232,-0.3202057,0.11982727,55.65033,-47.850037,-261.30066,10.392453861959124,0.40548153653837965,271.4122697787369,44.43493749999979,26.04760519970219
12:15:52:08,1.2045593,1.8393555,9.656067,0.27127075,-0.20410156,0.098526,55.2749635,-48.750305499999996,-260.62546,9.903222792156388,0.3534864060695914,270.8479889940087,44.43493749999979,26.047605278419258
12:15:52:09,1.2404633,1.8393555,9.454956,0.26487732,-0.16574097,0.09213257,54.899597,-49.650574,-259.95026,9.711754260480602,0.3257583064815512,270.2837082092805,44.43493749999978,26.047605357136327
12:15:52:10,1.2476501,1.7747192,9.191605,0.17326355,-0.10821533,0.0793457,55.5000305,-49.3499755,-260.925295,9.444144296171233,0.2191496190142739,271.2896472369679,44.434937499999776,26.04760543585339
12:15:52:11,1.3242645,1.8034363,9.438202,0.09550476,-0.11354065,0.0750885,56.100464,-49.049377,-261.90033,9.699779170008044,0.16628566149049082,272.29558626465524,44.434937499999776,26.04760551457046
12:15:52:12,1.3841248,1.7459869,9.857193,0.05821228,-0.14976501,0.06762695,55.575562000000005,-49.7993465,-261.524965,10.105865898387712,0.17433195957540604,271.9646938614558,44.43493749999977,26.04760559328753
12:15:52:13,1.4774933,1.6406403,10.247437,0.06781006,-0.18278503,0.051651,55.05066,-50.549316,-261.1496,10.482588044681426,0.20168390424202048,271.6338014582564,44.43493749999977,26.047605672004597
12:15:52:14,1.333847,1.4826202,10.503616,0.1146698,-0.1998291,0.03781128,54.8255925,-49.6498105,-261.1496,10.691270249709014,0.23347489187081424,271.42379873585634,44.43493749999976,26.047605750721665
12:15:52:15,1.2213135,1.3293915,10.589813,0.1764679,-0.21154785,0.03567505,54.600525,-48.750305,-261.1496,10.742580127721808,0.27778790787673785,271.21379601345626,44.434937499999755,26.047605829438734
12:15:52:16,1.0896301,1.2312317,10.687973,0.23825073,-0.21368408,0.046325684,54.299927499999995,-49.4255065,-260.54993,10.813694655511588,0.3233734147839725,270.69959419773045,44.434937499999755,26.047605908155802
12:15:52:17,1.0393524,1.180954,10.731064,0.27552795,-0.20729065,0.055908203,53.99933,-50.100708,-259.95026,10.845766009535598,0.3493004322518285,270.1853923820046,44.43493749999975,26.047605986872867
12:15:52:18,1.1040039,0.8792877,10.575455,0.4086914,-0.1444397,0.09638977,53.924561,-49.800109,-259.79996,10.669218337235934,0.44405233377463843,269.9703699613477,44.43493749999974,26.047606065589935
12:15:52:19,1.1423035,0.70928955,10.158859,0.48005676,-0.093307495,0.10491943,53.849792,-49.49951,-259.64966,10.247456520216733,0.5001688397295433,269.75534754069093,44.43493749999974,26.047606144307004
12:15:52:20,1.211731,0.65901184,9.605789,0.50242615,-0.038986206,0.09638977,54.750061,-49.949645000000004,-260.17456,9.704317128687736,0.5130720692288266,270.52547645937625,44.434937499999734,26.047606223024072
12:15:52:21,1.3003235,0.63986206,9.253845,0.47047424,0.018539429,0.07827759,55.65033,-50.39978,-260.69946,9.366638241359848,0.47730189820220886,271.2956053780615,44.434937499999734,26.04760630174114
12:15:52:22,1.3793335,0.5560608,8.942596,0.39164734,0.113357544,0.04206848,55.799865,-50.250243999999995,-259.57489,9.065417129770417,0.4098869706642283,270.21840145652124,44.43493749999973,26.04760638045821
12:15:52:23,1.3194733,0.41960144,8.686417,0.27978516,0.22627258,-0.0079956055,55.9494,-50.100708,-258.45032,8.796073865978615,0.3599207495038229,269.14119753498096,44.43493749999972,26.047606459175277
12:15:52:24,1.2452545,0.3166504,8.645721,0.13066101,0.3061676,-0.050613403,55.649564999999996,-51.0749815,-259.04999,8.740676052539152,0.33670850210118025,269.8394638984247,44.43493749999972,26.047606537892342
12:15:52:25,0.8885193,0.08201599,9.098221,-0.030197144,0.34983826,-0.076171875,55.34973,-52.049255,-259.64966,9.141871719398013,0.35930603975803127,270.5377302618685,44.43493749999971,26.04760661660941
12:15:52:26,0.4647522,-0.15022278,9.775787,-0.18147278,0.34025574,-0.06765747,56.25,-51.0749815,-259.04999,9.787981046181319,0.39151484228656885,269.96556350479614,44.43493749999971,26.04760669532648
12:15:52:27,0.14631653,-0.35372925,11.063858,-0.28585815,0.27526855,-0.012268066,57.15027,-50.100708,-258.45032,11.070478162817576,0.3970367262406657,269.39339674772384,44.434937499999705,26.047606774043548
12:15:52:28,0.005065918,-0.40161133,12.33519,-0.29438782,0.23692322,0.07722473,56.925202,-50.100708,-258.82492,12.341727174913954,0.3856947752603005,269.70538078535503,44.4349374999997,26.047606852760616
12:15:52:29,0.03378296,-0.41838074,12.785294,-0.22727966,0.22627258,0.18374634,56.700134,-50.100708,-259.19952,12.792182237539667,0.3696187789777024,270.01736482298617,44.4349374999997,26.047606931477684
12:15:52:30,0.31152344,-0.20289612,13.345535,-0.13459778,0.19325256,0.2838745,57.150268499999996,-49.95040899999999,-258.74939,13.35071227033994,0.36884664303438086,269.65299634483574,44.43493749999969,26.047607010194753
12:15:52:31,0.62275696,-0.08558655,13.3263855,-0.041915894,0.18579102,0.3531189,57.600403,-49.80011,-258.29926,13.341203161011364,0.40120842815134083,269.28862786668526,44.43493749999969,26.047607088911818
12:15:52:32,0.8095093,-0.008972168,13.211456,0.007080078,0.17939758,0.38401794,57.450103999999996,-50.174713,-258.82493,13.236236453256685,0.4239143751468993,269.8305139700567,44.434937499999684,26.047607167628886
12:15:52:33,1.3027191,0.26637268,12.586578,0.12745667,0.15596008,0.41490173,57.299805,-50.549316,-259.3506,12.656617921397451,0.4612073230534054,270.3724000734281,44.43493749999968,26.047607246345954
12:15:52:34,1.5134125,0.39804077,11.947327,0.15942383,0.117614746,0.3914795,56.8496705,-50.099945,-259.42535999999996,12.049376593611282,0.43875435606813457,270.2661758284271,44.43493749999968,26.047607325063023
12:15:52:35,1.6139679,0.51297,11.430176,0.14663696,0.035583496,0.3446045,56.399536,-49.650574,-259.50012,11.55495365607783,0.37619256325168576,270.15995158342616,44.43493749999967,26.04760740378009
12:15:52:36,1.4750977,0.536911,10.93219,0.084854126,-0.062408447,0.27642822,56.924437999999995,-50.775147000000004,-260.09979,11.04431821537963,0.2958168314490304,271.05627524018826,44.43493749999966,26.04760748249716
12:15:52:37,1.0632935,0.42677307,10.632904,-0.012084961,-0.16362,0.21676636,57.44934,-51.89972,-260.69946,10.694455376204788,0.27185511860184114,271.9525988969504,44.43493749999966,26.047607561214225
12:15:52:38,0.69937134,0.29748535,10.589813,-0.12181091,-0.20622253,0.19439697,56.25,-51.599885,-259.649655,10.617050305035152,0.30847335641803797,270.63898239781776,44.434937499999656,26.047607639931293
12:15:52:39,0.54374695,0.165802,10.652069,-0.21662903,-0.15190125,0.20292664,55.05066,-51.30005,-258.59985,10.667226679395132,0.33343867144048095,269.3253658986851,44.434937499999656,26.04760771864836
12:15:52:40,0.18701172,-0.04008484,10.93457,-0.26776123,-0.06135559,0.24127197,56.5505985,-51.14975,-258.22524999999996,10.936242556870948,0.36561283924807936,269.25258455019946,44.43493749999965,26.04760779736543
12:15:52:41,0.16067505,-0.11669922,11.138092,-0.2379303,0.054763794,0.28814697,58.050537,-50.99945,-257.85065,11.139862143675977,0.37767522702918355,269.17980320171375,44.43493749999964,26.0476078760825
12:15:52:42,0.24687195,-0.20529175,11.097382,-0.12394714,0.16874695,0.33714294,58.499908500000004,-51.0749815,-257.55005,11.102025838388183,0.39686746986913113,269.0040676306918,44.43493749999964,26.047607954799567
12:15:52:43,0.33546448,-0.26275635,10.656845,0.041168213,0.2774048,0.36909485,58.94928,-51.150513,-257.24945,10.665360878602844,0.4635507017804804,268.8283320596698,44.434937499999634,26.047608033516635
12:15:52:44,0.36418152,-0.14782715,9.984085,0.19351196,0.33493042,0.38613892,57.824707000000004,-51.000214,-257.099915,9.991818369696862,0.5465606374805859,268.4142750160495,44.434937499999634,26.0476081122337
12:15:52:45,0.3713684,0.007797241,9.328064,0.29364014,0.29977417,0.38613892,56.700134,-50.849915,-256.95038,9.33545677905381,0.5702563900187133,268.00021797242925,44.43493749999963,26.04760819095077
12:15:52:46,0.36418152,0.05567932,8.753464,0.353302,0.21455383,0.37869263,57.150268499999996,-51.449585,-257.250215,8.761213407141797,0.5605923270862577,268.4982127152449,44.43493749999962,26.047608269667837
12:15:52:47,0.24687195,0.06047058,8.296173,0.37886047,0.11122131,0.36909485,57.600403,-52.049255,-257.55005,8.300065595925814,0.5404964790109733,268.99620745806055,44.43493749999962,26.047608348384905
12:15:52:48,0.12716675,0.043701172,8.039993,0.3660736,-0.007019043,0.35739136,56.7749015,-51.449585,-257.624825,8.041117373523953,0.5116519635301378,268.77871760909414,44.43493749999961,26.047608427101974
12:15:52:49,0.019424438,-0.035308838,7.7838135,0.32240295,-0.09437561,0.34246826,55.9494,-50.849915,-257.6996,7.783917819813797,0.47972380286890315,268.56122776012774,44.434937499999606,26.047608505819042
12:15:52:50,-0.06677246,-0.09994507,7.6736755,0.25636292,-0.12632751,0.34353638,56.25,-51.074982500000004,-257.99942999999996,7.674616815042429,0.44687563249435613,268.9544543307153,44.434937499999606,26.04760858453611
12:15:52:51,-0.011703491,-0.16699219,7.5036926,0.17326355,-0.15829468,0.34672546,56.5506,-51.30005,-258.29926,7.50555967257055,0.41868366111793337,269.3476809013029,44.4349374999996,26.047608663253175
12:15:52:52,0.03378296,-0.0736084,7.8197174,0.073135376,-0.22114563,0.34140015,55.950165,-50.550079999999994,-258.074955,7.820136808317338,0.41328952964088117,268.86642712415915,44.4349374999996,26.047608741970244
12:15:52:53,0.30433655,0.007797241,8.303345,-0.013153076,-0.28292847,0.321167,55.34973,-49.80011,-257.85065,8.308924101329733,0.42821695953547034,268.3851733470154,44.43493749999959,26.047608820687312
12:15:52:54,0.4767151,0.05567932,8.734299,-0.06535339,-0.25416565,0.2945404,55.200195,-51.300049,-257.85065,8.747476007091684,0.3944937140900658,268.64087748140366,44.434937499999585,26.04760889940438
12:15:52:55,0.6921997,0.07962036,9.004852,-0.09411621,-0.17320251,0.2561798,55.05066,-52.799988,-257.85065,9.031768341156155,0.3232414892663134,268.8965816157919,44.434937499999585,26.04760897812145
12:15:52:56,0.6898041,0.14425659,9.119766,-0.11222839,-0.11141968,0.21037292,55.05066,-52.4246215,-257.100675,9.146954222848787,0.26318495793380914,268.1039879395377,44.43493749999958,26.047609056838517
12:15:52:57,0.62275696,0.29508972,9.160477,-0.116485596,-0.06880188,0.1581726,55.05066,-52.049255,-256.3507,9.18636179570602,0.20813736847997674,267.31139426328355,44.43493749999958,26.047609135555582
12:15:52:58,0.5461426,0.32382202,9.170044,-0.114349365,-0.046432495,0.13261414,54.524995000000004,-52.3498525,-257.02515,9.191998661994445,0.18115811876857146,267.9101955346854,44.43493749999957,26.04760921427265
12:15:52:59,0.3713684,0.26637268,9.225113,-0.09625244,0.026000977,0.054855347,53.99933,-52.65045,-257.6996,9.236426730935397,0.11379671394815641,268.5089968060873,44.43493749999956,26.04760929298972
12:15:52:60,0.2516632,0.20411682,9.237091,-0.062164307,0.066482544,0.012237549,54.674530000000004,-52.3498525,-257.624825,9.242772754142674,0.0918372872368821,268.51613273330423,44.43493749999956,26.047609371706788
12:15:52:61,0.12716675,0.14425659,9.143707,-0.016357422,0.12400818,-0.013320923,55.34973,-52.049255,-257.55005,9.145729005820858,0.12578966949225365,268.5232686605212,44.434937499999556,26.047609450423856
12:15:52:62,-0.0069122314,0.12271118,8.892319,0.027328491,0.17514038,-0.019714355,55.950165,-51.6746525,-257.174685,8.893168333636833,0.1783526139980783,268.216436635763,44.434937499999556,26.047609529140924
12:15:52:63,-0.0907135,0.14665222,8.638535,0.051818848,0.17832947,-0.010131836,56.5506,-51.30005,-256.79932,8.64025594290691,0.18598184583248684,267.9096046110048,44.43493749999955,26.047609607857993
12:15:52:64,-0.05479431,0.2591858,8.475739,0.05609131,0.12294006,-0.0005493164,56.475068,-51.225281499999994,-256.49948500000005,8.479878023382826,0.13513250962972237,267.59194469235996,44.43493749999954,26.047609686575058
12:15:52:65,-0.08592224,0.29988098,8.334473,0.04649353,0.07180786,0.0026550293,56.399536,-51.150513,-256.19965,8.340308832484645,0.08558660099702732,267.2742847737151,44.43493749999954,26.047609765292126
12:15:52:66,-0.09310913,0.32621765,8.274612,0.02305603,0.019607544,0.0026550293,56.774902999999995,-51.150513,-256.72455,8.281563319555366,0.03038232186085676,267.85693215958315,44.434937499999535,26.047609844009195
12:15:52:67,-0.023666382,0.29508972,8.190826,-0.013153076,-0.017669678,0.0015869141,57.15027,-51.150513,-257.24945,8.19617402223517,0.022084818886426008,268.4395795454511,44.43493749999953,26.047609922726263
12:15:52:68,0.0002746582,0.30706787,8.174057,-0.07281494,-0.009155273,0.0015869141,57.00022466666667,-50.800577999999994,-256.54958,8.179822650367944,0.07340540039580812,267.67050257515274,44.43493749999953,26.04761000144333
12:15:52:69,0.021820068,0.34298706,8.14534,-0.1591034,0.023864746,0.0069122314,56.85017933333333,-50.450643,-255.84971000000002,8.15258731656981,0.16103166438974562,266.9014256048543,44.43493749999952,26.0476100801604
12:15:52:70,0.23968506,0.48184204,8.820496,-0.22833252,0.030258179,0.007980347,56.700134,-50.100708,-255.14984,8.836898232157852,0.23046688053641645,266.1323486345559,44.43493749999952,26.047610158877468
12:15:52:71,0.27799988,0.61112976,9.21315,-0.25497437,0.031326294,-0.013320923,57.44934,-50.39978,-257.24945,9.237580659422557,0.2572366868124437,268.3614056003331,44.43493749999951,26.047610237594533
12:15:52:72,0.26841736,0.6422577,9.399887,-0.2421875,0.052627563,-0.028244019,56.69937,-51.525115,-256.949615,9.425625626192017,0.24944372141395207,268.131733796209,44.434937499999506,26.0476103163116
12:15:52:73,0.17984009,0.62550354,9.555511,-0.22514343,0.05369568,-0.037826538,55.9494,-52.65045,-256.64978,9.577650422083943,0.23452854218600505,267.90206199208495,44.434937499999506,26.04761039502867
12:15:52:74,0.18461609,0.6614075,9.744659,-0.20916748,0.043045044,-0.029312134,56.25,-51.599883,-256.72455,9.76882398285608,0.21555303686597946,267.83446393388795,44.4349374999995,26.04761047374574
12:15:52:75,0.14631653,0.6733856,9.80452,-0.18252563,0.04624939,-0.0079956055,56.5506,-50.549316,-256.79932,9.828706380986187,0.18846363413024975,267.76686587569094,44.4349374999995,26.047610552462807
12:15:52:76,0.27320862,0.76675415,9.749451,-0.14738464,0.033462524,0.019699097,57.3005685,-51.299285499999996,-257.174685,9.783371079438085,0.15241399884195542,268.4299100814759,44.43493749999949,26.047610631179875
12:15:52:77,0.39291382,0.9199829,9.6345215,-0.12606812,-0.0048980713,0.038864136,58.050537,-52.049255,-257.55005,9.68631789382331,0.13201357146074333,269.0929542872609,44.434937499999485,26.04761070989694
12:15:52:78,0.6347351,1.0660248,9.739868,-0.13352966,-0.048568726,0.03781128,57.675171,-51.299285499999996,-256.575015,9.818570475319259,0.14703327562227905,267.9348675465309,44.434937499999485,26.04761078861401
12:15:52:79,0.8621826,1.236023,9.907471,-0.14205933,-0.06135559,0.021820068,57.299805,-50.549316,-255.59998,10.021431699518425,0.15627372470067266,266.7767808058008,44.43493749999948,26.047610867331077
12:15:52:80,1.0441437,1.338974,9.996048,-0.15164185,-0.05496216,-0.013320923,56.9999695,-50.474548,-255.37491,10.139233849617519,0.1618441741084925,266.4827966261636,44.43493749999948,26.047610946048145
12:15:52:81,0.8909149,1.3653107,10.12294,-0.16868591,-0.062408447,-0.05593872,56.700134,-50.39978,-255.14984,10.253375878713141,0.1883584107087292,266.1888124465263,44.43493749999947,26.047611024765214
12:15:52:82,0.73768616,1.398819,10.321655,-0.19424438,-0.07307434,-0.08683777,56.700134,-50.7751465,-254.92477000000002,10.442099281487488,0.2249700794030017,266.04478921995775,44.434937499999464,26.047611103482282
12:15:52:83,0.6562805,1.3102417,10.644882,-0.21662903,-0.05496216,-0.09428406,56.700134,-51.150513,-254.6997,10.745275715449239,0.24256640253895448,265.9007659933892,44.434937499999464,26.04761118219935
12:15:52:84,0.6754303,1.259964,10.982468,-0.21556091,-0.020874023,-0.08470154,56.9999695,-50.7003785,-254.24957,11.07512161298819,0.2325437198347963,265.4480343149455,44.43493749999946,26.047611260916415
12:15:52:85,0.68022156,1.283905,11.257797,-0.18359375,0.013214111,-0.0740509,57.299805,-50.250244,-253.79944,11.351172041376293,0.1984056792518622,264.9953026365018,44.43493749999945,26.047611339633484
12:15:52:86,0.7975464,1.3246002,11.545105,-0.12501526,0.015350342,-0.06765747,57.749939,-49.950409,-253.35007000000002,11.648179918382871,0.1429754576113868,264.6066896693652,44.43493749999945,26.047611418350552
12:15:52:87,0.9244385,1.3461456,11.729446,-0.04084778,-0.0016937256,-0.06765747,58.200073,-49.650574,-252.9007,11.842575648210891,0.07905025669874446,264.2180767022287,44.43493749999944,26.04761149706762
12:15:52:88,1.1159668,1.3796692,11.655228,0.041168213,-0.013412476,-0.08576965,58.4251405,-49.650574,-253.4256,11.789538105121627,0.09607886934798121,264.7701506327686,44.43493749999944,26.04761157578469
12:15:52:89,1.1925812,1.367691,11.50679,0.10722351,-0.03152466,-0.11026001,58.650208,-49.650574,-253.9505,11.64899329101766,0.15699667222599276,265.32222456330857,44.434937499999435,26.047611654501758
12:15:52:90,1.2093353,1.4131927,11.332016,0.14131165,-0.06668091,-0.14434814,58.3503725,-49.950409,-254.250335,11.483648901782715,0.21272449719204933,265.59976440649416,44.43493749999943,26.047611733218822
12:15:52:91,1.1901855,1.3413696,11.19075,0.14024353,-0.10928345,-0.18377686,58.050537,-50.250244,-254.55017,11.33352105440822,0.2557050144643687,265.8773042496798,44.43493749999943,26.04761181193589
12:15:52:92,1.0585022,1.1977081,11.219482,0.11254883,-0.1401825,-0.22105408,56.999968499999994,-49.950409,-252.97546499999999,11.332771415171774,0.28492679537955934,264.0853800553025,44.43493749999942,26.04761189065296
12:15:52:93,0.9028778,1.1091309,11.609741,0.07418823,-0.17001343,-0.2498169,55.9494,-49.650574,-251.40076,11.697497414496345,0.3111542115680066,262.2934558609251,44.43493749999942,26.047611969370028
12:15:52:94,0.72810364,1.0181427,12.081406,0.05821228,-0.15615845,-0.25727844,57.299803999999995,-49.124908500000004,-251.625065,12.14607427957612,0.3065392743810073,262.7045464818634,44.434937499999414,26.047612048087096
12:15:52:95,0.56051636,0.8050537,12.581787,0.08911133,-0.10609436,-0.24662781,58.650208,-48.599243,-251.84937,12.619970450166685,0.2828818110511431,263.11563710280166,44.43493749999941,26.047612126804164
12:15:52:96,0.40489197,0.6733856,12.799667,0.17326355,-0.048568726,-0.21040344,57.9750065,-49.424743500000005,-251.399995,12.823761577031398,0.27685517236941626,262.6918800623999,44.43493749999941,26.047612205521233
12:15:52:97,0.55332947,0.53211975,12.605728,0.30429077,0.024932861,-0.1560669,57.299805,-50.250244,-250.95062,12.62908165072562,0.34288685822067927,262.2681230219981,44.4349374999994,26.047612284238298
12:15:52:98,0.76641846,0.4985962,11.978455,0.42892456,0.052627563,-0.11665344,57.749939,-49.2004395,-251.17568999999997,12.013300113353875,0.44760916391685523,262.38579890586766,44.43493749999939,26.047612362955366
12:15:52:99,0.9316101,0.6207123,11.173996,0.5045624,0.00044250488,-0.11239624,58.200073,-48.150635,-251.40076,11.229931778323914,0.5169297109573664,262.50347478973714,44.43493749999939,26.047612441672435
12:15:53:00,1.0058289,0.7978821,10.489258,0.50775146,-0.10609436,-0.13264465,58.9500425,-48.000336000000004,-250.650025,10.567537130861647,0.5354084062933302,261.92630704807766,44.434937499999386,26.047612520389503
12:15:53:01,1.2021637,0.8122406,10.034363,0.44703674,-0.22859192,-0.16566467,59.700012,-47.850037,-249.89929,10.138706681310742,0.5287162714399122,261.34913930641824,44.434937499999386,26.04761259910657
12:15:53:02,1.4272156,0.7619629,9.830856,0.3298645,-0.32659912,-0.21572876,58.799743500000005,-48.000336000000004,-250.274655,9.963094977094004,0.5118754452365947,261.5335255773063,44.43493749999938,26.04761267782364
12:15:53:03,1.6355133,0.6542206,9.974503,0.18711853,-0.3755951,-0.28604126,57.899475,-48.150635,-250.65002,10.128850795867725,0.5078431114387184,261.7179118481944,44.43493749999937,26.04761275654071
12:15:53:04,1.7336731,0.5153656,10.20195,0.045440674,-0.36601257,-0.36380005,58.124542500000004,-48.450469999999996,-250.424955,10.36103314934505,0.5180545653032909,261.60800389458643,44.43493749999937,26.047612835257773
12:15:53:05,1.58284,0.40283203,10.429398,-0.08026123,-0.3127594,-0.44050598,58.34961,-48.750305,-250.19989,10.556514517225747,0.5461738054367248,261.49809594097854,44.434937499999364,26.04761291397484
12:15:53:06,1.4128418,0.27833557,10.786133,-0.1867981,-0.2669525,-0.51187134,58.34961,-48.750305,-250.19989,10.88183154322118,0.6067696730500426,261.49809594097854,44.434937499999364,26.04761299269191
12:15:53:07,1.1782227,0.05088806,11.0494995,-0.25604248,-0.22007751,-0.55981445,58.34961,-48.750305,-250.19989,11.112256185219367,0.6537461895882476,261.49809594097854,44.43493749999936,26.04761307140898
12:15:53:08,0.8693695,-0.29148865,11.339203,-0.28585815,-0.16148376,-0.5832367,57.749939999999995,-48.0751035,-250.650025,11.376216138761519,0.6692958500484297,261.672875464483,44.43493749999935,26.047613150126047
12:15:53:09,0.641922,-0.58117676,11.50679,-0.28160095,-0.08691406,-0.5757904,57.15027,-47.399902,-251.10016,11.53932608017245,0.646828983270498,261.8476549879874,44.43493749999935,26.047613228843115
12:15:53:10,0.5653076,-0.7703247,11.877899,-0.2421875,-0.0016937256,-0.53744507,57.3753365,-47.174835,-250.800325,11.916268605576532,0.5894954258770486,261.56894090361993,44.43493749999934,26.047613307560184
12:15:53:11,0.61798096,-0.91397095,12.064636,-0.15164185,0.10482788,-0.48417664,57.600403,-46.949768,-250.50049,12.11497772085704,0.5180841184773053,261.2902268192524,44.43493749999934,26.04761338627725
12:15:53:12,0.7903595,-1.0049591,11.997604,-0.007827759,0.24757385,-0.43197632,58.05002866666667,-46.749878,-250.70038,12.065534081536926,0.4979534376380256,261.5463065123847,44.434937499999336,26.047613464994317
12:15:53:13,0.9531555,-1.0073547,11.492432,0.25422668,0.44677734,-0.38510132,58.49965433333333,-46.549988,-250.90027,11.575805033491898,0.6422960555904422,261.80238620551705,44.43493749999933,26.047613543711385
12:15:53:14,1.0297699,-0.9834137,11.027954,0.29816818,0.450508115,-0.3752479575,58.94928,-46.350098,-251.10016,11.119500797176538,0.6615763411644653,262.0584658986494,44.43493749999933,26.047613622428454
12:15:53:15,1.1047922666666667,-0.9474996,10.161249666666667,0.34210967999999997,0.45423889,-0.36539459500000004,58.686828750000004,-46.425247500000005,-251.10016,10.268208642539486,0.6808566267384883,262.01327310528734,44.43493749999932,26.047613701145522
12:15:53:16,1.1798146333333333,-0.9115854999999999,9.294545333333334,0.38605118,0.457969665,-0.3555412325,58.424377500000006,-46.50039700000001,-251.10016,9.416916487902432,0.7001369123125113,261.9680803119253,44.434937499999315,26.04761377986259
12:15:53:17,1.254837,-0.8756714,8.427841,0.42999268,0.46170044,-0.34568787,58.16192625,-46.5755465,-251.10016,8.56562433326538,0.7194171978865344,261.9228875185632,44.434937499999315,26.047613858579655
12:15:53:18,1.0920258,-0.63145447,7.7646484,0.33091736,0.32002258,-0.33078003,57.899475,-46.650696,-251.10016,7.866449000099801,0.5668652212881179,261.87769472520114,44.43493749999931,26.047613937296724
12:15:53:19,1.0976105,-0.6258697466666666,7.801361066666666,0.28192139,0.21988678,-0.31533050500000004,57.799784333333335,-46.50065066666667,-250.40028999999998,7.903027311861436,0.4825074399538547,261.157881541308,44.43493749999931,26.047614016013792
12:15:53:20,1.1031952,-0.6202850233333334,7.838073733333333,0.23292542,0.11975098,-0.29988098,57.70009366666667,-46.350605333333334,-249.70042,7.939605623623071,0.39814965861959145,260.43806835741486,44.4349374999993,26.04761409473086
12:15:53:21,1.1087799,-0.6147003,7.8747864,0.2169342,0.045181274,-0.27005005,57.600403,-46.20056,-249.00055,7.9761839353847055,0.3493262431523082,259.7182551735217,44.43493749999929,26.04761422067817
12:15:53:22,1.1542816,-0.5907593,7.9777374,0.227592465,0.0153503415,-0.26313019,57.44934,-44.400024,-249.60022,8.082428879117575,0.3497465524455192,259.9462610265525,44.434937499999286,26.04761434662548
12:15:53:23,1.4619369500000001,-0.46027375,8.0004807,0.23825073,-0.014480591,-0.25621033,58.649445,-44.6998595,-249.900055,8.1525506128501,0.3501668617387303,260.555409308398,44.43493749999928,26.047614472572786
12:15:53:24,1.7695923,-0.3297882,8.023224,0.24357605,0.004699707,-0.2828369,59.84955,-44.999695,-250.19989,8.222672346582621,0.3732935726490591,261.16455759024353,44.43493749999927,26.047614598520095
12:15:53:25,1.8725433,-0.17655945,7.877182,0.21800995,0.042518615499999995,-0.32438659000000003,58.9500435,-45.7496645,-249.075315,8.09861641954249,0.39724006386770727,260.01532159589766,44.434937499999265,26.047614724467405
12:15:53:26,1.9156342,-0.08798218,7.733536,0.19244385,0.080337524,-0.36593628,58.050537,-46.499634,-247.95074,7.967745874179421,0.4211865550863554,258.8660856015518,44.43493749999926,26.04761485041471
12:15:53:27,1.8701477,0.022155762,7.6425476,0.14663696,0.14424133,-0.41918945,58.8752745,-45.674897,-248.25058,7.868066923703106,0.46693442185119854,259.1952672412907,44.43493749999925,26.04761497636202
12:15:53:28,1.7719727,0.06764221,7.616211,0.10651143200000002,0.17832946666666666,-0.43765767333333333,59.700012,-44.85016,-248.55042,7.819918971104494,0.4897690767968411,259.5244488810296,44.43493749999924,26.04761510230933
12:15:53:29,1.39369205,0.18735504000000003,7.568329,0.06638590400000001,0.21241760333333332,-0.4561258966666667,59.700012,-44.625092,-248.55042,7.70740843411776,0.5126037317424836,259.4857427845078,44.434937499999236,26.04761522825664
12:15:53:30,1.0154114,0.30706787,7.520447,0.026260376,0.24650574,-0.47459412,59.700012,-44.400024,-248.55042,7.594897897131027,0.5354383866881263,259.44703668798593,44.43493749999923,26.04761535420395
12:15:53:31,0.8406372,0.39086914,7.57312,-0.0025024414,0.23266602,-0.47564697,59.175110000000004,-44.400024,-248.17505,7.629652424653969,0.5295089981726294,258.9673677505955,44.43493749999922,26.047615480151254
12:15:53:32,0.725708,0.4507141,7.5084686,-0.03126526,0.2230835,-0.47564697,58.650208,-44.400024,-247.79968,7.5569104810358025,0.526292508520973,258.4876988132051,44.434937499999215,26.047615606098564
12:15:53:33,0.5293884,0.54649353,7.446228,-0.07281494,0.21136475,-0.46925354,58.4251405,-43.875122000000005,-247.94997999999998,7.484999578114245,0.5197845301971749,258.49190452478615,44.43493749999921,26.047615732045873
12:15:53:34,0.3378601,0.60154724,7.398346,-0.13034058,0.19857788,-0.4532776,58.200073,-43.35022,-248.10028,7.43044628974866,0.5117444908172347,258.49611023636726,44.4349374999992,26.04761585799318
12:15:53:35,0.17025757,0.6494446,7.453415,-0.1867981,0.18153381,-0.4234619,58.899943,-42.90008566666667,-247.54994666666667,7.483592792959573,0.49715996931403894,258.05464063038966,44.434937499999194,26.04761598394049
12:15:53:36,0.112800599,0.74281312,7.7215653,-0.229942325,0.141052245,-0.381912225,59.599813000000005,-42.44995133333333,-246.99961333333331,7.758568048600325,0.47248699153100465,257.613171024412,44.43493749999919,26.047616109887798
12:15:53:37,0.055343628,0.83618164,7.9897156,-0.27308655,0.10057068,-0.34036255,60.299683,-41.999817,-246.44928,8.033543304241077,0.44781401374797036,257.1717014184344,44.43493749999918,26.047616235835108
12:15:53:38,0.021820068,0.9606781,8.372787,-0.27734375,0.039855957,-0.28071594,58.799744,-41.700745,-246.89941,8.4277482564773,0.3966226064441259,257.20746623371696,44.43493749999917,26.047616361782417
12:15:53:39,0.035385132,1.0748036666666667,8.467752666666668,-0.2879943833333333,0.005055744666666667,-0.2608286533333333,59.599812666666665,-41.850280999999995,-247.04945666666666,8.536971653914478,0.39295158592591034,257.56190797719796,44.434937499999165,26.047616487729723
12:15:53:40,0.048950196,1.1889292333333332,8.562718333333333,-0.29864501666666665,-0.029744467666666663,-0.24094136666666666,60.39988133333333,-41.999817,-247.19950333333333,8.646195051351658,0.38928056540769473,257.91634972067897,44.43493749999916,26.047616613677032
12:15:53:41,0.06251526,1.3030548,8.657684,-0.30929565,-0.06454468,-0.22105408,61.19995,-42.149353,-247.34955,8.755418448788836,0.3856095448894792,258.27079146415997,44.43493749999915,26.047616739624342
12:15:53:42,0.03857422,1.3868561,8.865982,-0.33273315,-0.06454468,-0.21147156,60.450745,-42.149353,-247.05048,8.973878461227331,0.3994966652101848,257.8076806412176,44.434937499999144,26.047616865571648
12:15:53:43,-0.016494751,1.4922028,9.220322,-0.39344788,-0.040039062,-0.18164062,60.0753785,-41.249846500000004,-246.15021000000002,9.340304013083427,0.4351984324378004,256.71207014259573,44.43493749999914,26.047616991518957
12:15:53:44,-0.05239868,1.525711,10.041534,-0.40516663,-0.010223389,-0.15820312,59.700012,-40.35034,-245.24994,10.156916104327276,0.4350778584643634,255.61645964397394,44.43493749999913,26.047617117466267
12:15:53:45,-0.08113098,1.5065613,10.247437,-0.3955841,0.008956909,-0.14755249,59.549713,-40.724945000000005,-245.549775,10.357908778104896,0.42230172116254083,255.92877279899946,44.43493749999912,26.047617243413576
12:15:53:46,-0.25830078,1.5592346,10.728683,-0.3210144,0.082458496,-0.08895874,59.399414,-41.09955,-245.84961,10.844471897942968,0.34316658635760217,256.241085954025,44.43493749999912,26.047617369360886
12:15:53:47,-0.36843872,1.6214905,10.783737,-0.24005127,0.13040161,-0.038894653,60.1493835,-40.574647,-245.84961,10.911185188473087,0.27593837382864206,256.3339821394461,44.434937499999116,26.04761749530819
12:15:53:48,-0.40075683500000003,1.6538086,10.808876000000001,-0.150039673,0.136260985,0.020759583499999998,60.899353,-40.049744,-245.84961,10.942086424110851,0.22495761873399428,256.42687832486723,44.43493749999911,26.0476176212555
12:15:53:49,-0.43307495,1.6861267,10.834015,-0.060028076,0.14212036,0.08041382,60.2996825,-39.4500735,-245.324705,10.972987659748616,0.17397686363934653,255.6893068061788,44.4349374999991,26.04761774720281
12:15:53:50,-0.37322998,1.7794952,10.597,0.02519226,0.115478516,0.13580322,59.700012,-38.850403,-244.7998,10.751851597971106,0.18003458607678208,254.95173528749035,44.434937499999094,26.047617873150116
12:15:53:51,-0.28224182,1.7962646,10.470108,0.05609131,0.10270691,0.15924072,59.749858,-38.550313333333335,-245.49967,10.626824007662593,0.19761718378061813,255.59070465963248,44.43493749999909,26.047617999097426
12:15:53:52,-0.125427245,1.8046417,10.334831,0.080581665,0.06434631,0.2007904,59.799704,-38.25022366666666,-246.19953999999998,10.493154375140751,0.22572247800551085,256.2296740317746,44.43493749999908,26.047618125044735
12:15:53:53,0.03138733,1.8130188,10.199554,0.04437256,-0.0048980713,0.2434082,59.84955,-37.950134,-246.89941,10.359484742618909,0.2474681131189501,256.86864340391674,44.43493749999907,26.047618250992045
12:15:53:54,0.11758423,1.829773,10.304901,0.024124146,-0.018737793,0.24873352,59.700012,-39.59961,-244.7998,10.466751162728322,0.2506021613600541,255.06697674334922,44.434937499999066,26.047618376939354
12:15:53:55,0.264831545,1.6957016,10.689171,0.001220703,-0.0416412365,0.24234009,59.175110000000004,-38.324737999999996,-244.2749,10.828677035461428,0.24808848159657632,254.24832764579162,44.43493749999906,26.04761850288666
12:15:53:56,0.41207886,1.5616302,11.073441,-0.02168274,-0.06454468,0.23594666,58.650208,-37.049866,-243.75,11.190602908194533,0.24557480183309852,253.42967854823402,44.43493749999905,26.04761862883397
12:15:53:57,0.4575653,1.5161438,11.26976,-0.024871826,-0.051757812,0.23168945,58.800252,-37.45015466666667,-243.90004333333334,11.380489817386707,0.23869956026960779,253.66811323078804,44.434937499999045,26.04761875478128
12:15:53:58,0.3582077,1.44551085,11.535522499999999,-0.02381134,-0.015541076000000001,0.22529601999999999,58.950296,-37.85044333333333,-244.05008666666666,11.632206290791931,0.22987514847039575,253.90654791334208,44.43493749999904,26.047618880728585
12:15:53:59,0.2588501,1.3748779,11.801285,-0.022750854,0.02067566,0.21890259,59.10034,-38.250732,-244.20013,11.883922764197157,0.22105073667118375,254.1449825958961,44.43493749999903,26.047619006675895
12:15:53:60,0.12237549,1.1785583,12.723053,0.043304443,0.05583191,0.24659729,59.700012,-38.850403,-243.29987,12.778108352485535,0.25652037032784053,253.5118774102694,44.43493749999902,26.047619132623204
12:15:53:61,0.137939455,1.0013885249999999,12.6655885,0.19457244650000002,0.09258270499999999,0.286544795,59.400176,-38.400268499999996,-242.700195,12.707038242524892,0.374699829416698,252.7973254031197,44.434937499999016,26.047619258570514
12:15:53:62,0.15350342,0.82421875,12.608124,0.34584045,0.1293335,0.3264923,59.10034,-37.950134,-242.10052,12.63596813256425,0.4928792885055554,252.08277339596998,44.43493749999901,26.047619384517823
12:15:53:63,0.17504883,0.8697052,12.028732,0.46194458,0.07180786,0.36376953,59.10034,-38.100432999999995,-241.875455,12.061402188618677,0.5923490817968547,251.88938993383647,44.434937499999,26.04761951046513
12:15:53:64,0.346229565,0.897239685,11.402649,0.45555877499999997,-0.01714325,0.37548828,59.10034,-38.250732,-241.65039,11.44497148459281,0.5973977365042153,251.69600647170293,44.434937499998995,26.04761963641244
12:15:53:65,0.5174103,0.92477417,10.776566,0.44917297,-0.10609436,0.38720703,58.950041999999996,-38.625336000000004,-242.024995,10.828540780566941,0.6024463912115761,252.07792371296057,44.43493749999899,26.047619762359748
12:15:53:66,0.6036072,0.8840637,10.6736145,0.4033661,-0.14125061,0.3776245,58.799744,-38.99994,-242.3996,10.727159771913522,0.5703123779603877,252.45984095421818,44.43493749999898,26.047619888307054
12:15:53:67,0.71614075,0.8505554,10.601776,0.19776917,-0.22007751,0.31477356,58.799744,-38.475037,-242.9245,10.65992290856063,0.4320059595484333,252.88420675025844,44.43493749999897,26.047620014254363
12:15:53:68,0.7640228,0.60873413,10.496445,0.020935059,-0.25949097,0.2476654,58.799744,-37.950134,-243.4494,10.541804670831825,0.35932156985635355,253.30857254629873,44.434937499998966,26.047620140201673
12:15:53:69,0.6323395,0.43156433,10.896271,-0.171875,-0.28292847,0.18800354,57.599639999999994,-38.024902,-242.624665,10.923132459126805,0.3807031203103968,252.2525532428105,44.43493749999896,26.047620266148982
12:15:53:70,0.51023865,0.34059143,11.224274,-0.2613678,-0.28186035,0.16456604,56.399536,-38.09967,-241.79993,11.241026324549697,0.4181391697751409,251.19653393932228,44.43493749999895,26.04762039209629
12:15:53:71,0.15948486500000003,0.04370879999999999,12.322014,-0.3401947,-0.2669525,0.15072632,56.9999695,-37.274932500000006,-241.349795,12.332265508131906,0.45794595172911223,250.77720821919405,44.434937499998945,26.047620518043598
12:15:53:72,-0.19126892,-0.25317383,13.419754,-0.4328766,-0.14337158,0.16137695,57.600403,-36.450195,-240.89966,13.423504691714115,0.4837148754902612,250.35788249906582,44.43493749999894,26.047620643990907
12:15:53:73,-0.31576538,-0.38964844,13.759735,-0.37960815,-0.08477783,0.18374634,56.7749015,-36.15036,-241.349795,13.768872174300476,0.43017710942044207,250.56115854044356,44.43493749999893,26.047620769938217
12:15:53:74,-0.34449768,-0.85173035,13.960846,-0.04298401,0.16981506,0.34140015,55.9494,-35.850525,-241.79993,13.991045145962202,0.3837171381871107,250.76443458182126,44.434937499998924,26.047620895885522
12:15:53:75,0.03378296,-1.0097504,13.039078,0.27552795,0.34132385,0.46284485,56.549835,-35.325622499999994,-242.175295,13.078160889390011,0.6376856411912907,251.1876882967724,44.43493749999892,26.047621021832832
12:15:53:76,0.29714966,-0.89242554,12.299271,0.4321289,0.39352417,0.51078796,57.15027,-34.80072,-242.55066,12.33518497616973,0.776209378112865,251.61094201172352,44.43493749999891,26.04762114778014
12:15:53:77,0.8214874,-0.4782257,9.749451,0.74638367,0.37327576,0.5587158,56.999970000000005,-34.500122,-242.100525,9.795679464432279,1.0042841833942655,251.1015238248628,44.4349374999989,26.04762127372745
12:15:53:78,1.0441437,-0.18135071,8.178848,0.7794037,0.21881104,0.5235596,56.84967,-34.199524,-241.65039,8.247222487199627,0.964086642139456,250.59210563800204,44.434937499998895,26.04762139967476
12:15:53:79,1.09801485,-0.119102479,7.4354475,0.636123665,0.04144287000000002,0.443664565,56.324768000000006,-34.424592,-241.275025,7.518959782878243,0.7957704324930508,250.1428290807944,44.43493749999889,26.047621525622066
12:15:53:80,1.151886,-0.056854248,6.692047,0.49284363,-0.1359253,0.36376953,55.799866,-34.64966,-240.89966,6.790697078556858,0.6274542228466454,249.69355252358673,44.43493749999888,26.047621651569376
12:15:53:81,1.0848389,-0.07121277,6.6178284,0.37886047,-0.20303345,0.31584167,55.425263,-35.32486,-241.275025,6.706534084712523,0.5333983483813127,250.06807085020523,44.434937499998874,26.047621777516685
12:15:53:82,0.6778259,-0.2172699,7.281021,0.052886963,-0.30741882,0.18800354,55.05066,-36.00006,-241.65039,7.3157310613907764,0.3642096824606498,250.4425891768237,44.43493749999887,26.04762190346399
12:15:53:83,0.30194092,-0.43992615,7.956192,-0.11541748,-0.292511,0.145401,54.8255925,-35.475158,-241.65039,7.974063862140073,0.34644672117304043,250.31890518898774,44.43493749999886,26.0476220294113
12:15:53:84,0.029006958,-0.62667847,8.497284,-0.21768188,-0.23391724,0.13900757,54.600525,-34.950256,-241.65039,8.520410945783658,0.34846202169943413,250.19522120115175,44.43493749999885,26.04762215535861
12:15:53:85,-0.22956848,-0.7056732,9.03598,-0.24325562,-0.17320251,0.16563416,55.050149999999995,-34.399922333333336,-241.70023666666665,9.06640010768374,0.34147779004027495,250.26762199989867,44.434937499998846,26.04762228130592
12:15:53:86,-0.13380432,-0.6960983199999999,9.300537,-0.17667389,-0.14656829500000002,0.21730041500000002,55.499775,-33.84958866666667,-241.75008333333332,9.328087558160357,0.32793903561310966,250.34002279864555,44.43493749999884,26.04762240725323
12:15:53:87,-0.03804016,-0.68652344,9.565094,-0.11009216,-0.11993408,0.26896667,55.9494,-33.299255,-241.79993,9.589775008636973,0.31440028118594443,250.41242359739246,44.43493749999883,26.047622533200535
12:15:53:88,0.12716675,-0.6817322,9.593826,-0.055770874,-0.1210022,0.29026794,53.700256,-34.80072,-242.55066,9.618857910017093,0.31938597305361965,250.8498161717874,44.434937499998824,26.047622659147844
12:15:53:89,0.9459839,-0.2723236,9.48848,0.117874146,-0.17533875,0.29559326,53.475189,-34.425354,-242.024995,9.539407654177284,0.3633364376225146,250.24167735815928,44.43493749999882,26.047622785095154
12:15:53:90,1.2093353,-0.030517578,9.284973,0.22120667,-0.20622253,0.23806763,53.250122,-34.049988,-241.49933,9.36344737802921,0.3848848128803041,249.63353854453115,44.43493749999881,26.04762291104246
12:15:53:91,1.04533385,-0.08319091899999999,8.8947145,0.29417419499999997,-0.208351135,0.156578065,52.874756,-33.4503175,-241.64963,8.957263940034675,0.40734531844187205,249.6191701973836,44.4349374999988,26.04762303698977
12:15:53:92,0.8813324,-0.13586426,8.504456,0.36714172,-0.21047974,0.0750885,52.49939,-32.850647,-241.79993,8.551080502040142,0.42980582400344,249.60480185023604,44.434937499998796,26.04762316293708
12:15:53:93,0.70176697,-0.24121094,8.16449,0.3799286,-0.18917847,0.048461914,52.749634,-32.850647,-241.44999333333334,8.198143482390307,0.42718004602046233,249.31906272462177,44.43493749999879,26.047623288884388
12:15:53:94,0.22293091,-0.46626282,7.25708,0.3330536,-0.083724976,0.019699097,52.999877999999995,-32.850647,-241.10005666666666,7.275459389918123,0.34398056122661347,249.0333235990075,44.43493749999878,26.047623414831698
12:15:53:95,0.026611328,-0.5045624,6.778244,0.23292542,-0.014480591,0.029281616,53.250122,-32.850647,-240.75012,6.797049588005644,0.23520491456059572,248.74758447339323,44.43493749999878,26.047623540779004
12:15:53:96,0.005058288500000001,-0.41119386,6.6609268,0.10562134000000001,0.009490966500000001,0.051651001,52.799988,-32.775116,-241.57486,6.674196923812818,0.1596408304349145,249.4411102629835,44.434937499998775,26.047623666726313
12:15:53:97,-0.016494751,-0.31782532,6.5436096,-0.02168274,0.033462524,0.074020386,52.349854,-32.699585,-242.3996,6.551344259619992,0.08407674630923327,250.13463605257377,44.43493749999877,26.047623792673622
12:15:53:98,0.22053528,-0.19570923,6.7734528,-0.12820435,-0.018737793,0.08680725,52.799988,-32.699585,-239.84985,6.779867310372653,0.15595819599493912,247.76006969847842,44.43493749999876,26.04762391862093
12:15:53:99,0.461151125,-0.076004029,7.0763169,-0.1676178,-0.056030273,0.08680725,52.874756,-32.6248175,-240.525055,7.096235683602863,0.19690255717449948,248.41991126528583,44.43493749999875,26.047624044568238
12:15:54:00,0.70176697,0.043701172,7.379181,-0.22195435,-0.17959595,0.06869507,52.949524,-32.55005,-241.20026,7.412604056833074,0.2936621381496598,249.07975283209325,44.434937499998746,26.047624170515547
12:15:54:01,1.0010529,0.19692993,7.683258,-0.23579407,-0.27760315,0.03353882,52.1995545,-32.174683,-240.599825,7.750699439437206,0.36576933275505724,248.29160720708666,44.43493749999874,26.047624296462857
12:15:54:02,1.1111755,0.38128662,7.9849243,-0.24858093,-0.37879944,-0.026107788,51.449585,-31.799316,-239.99939,8.070880159878584,0.4538315889162316,247.50346158208006,44.43493749999873,26.047624422410166
12:15:54:03,1.0920258,0.44114685,8.162094,-0.25497437,-0.419281,-0.06340027,51.525116,-31.124878000000002,-239.55002000000002,8.246630181835885,0.49480105148834297,246.9984111696964,44.434937499998725,26.047624548357472
12:15:54:04,0.8669739,0.48902893,8.887543,-0.2688141,-0.49171448,-0.16778564,51.600647,-30.45044,-239.10065,8.943109840234948,0.5849753594731064,246.4933607573127,44.43493749999872,26.04762467430478
12:15:54:05,0.7759857,0.4650879,9.366379,-0.2698822,-0.49597168,-0.20933533,51.25020333333333,-31.3502,-239.60063,9.409968976196037,0.6022006224050847,247.02163236043637,44.43493749999871,26.04762480025209
12:15:54:06,0.72930145,0.49262238,9.770996,-0.238456725,-0.43631744,-0.231170655,50.89975966666667,-32.24996,-240.10061000000002,9.810854377904013,0.550474092215384,247.54990396356007,44.4349374999987,26.047624926199397
12:15:54:07,0.6826172,0.52015686,10.175613,-0.20703125,-0.3766632,-0.25300598,50.549316,-33.14972,-240.60059,10.211739779611989,0.4987475620256834,248.07817556668374,44.434937499998696,26.047625052146707
12:15:54:08,0.6131897,0.48423767,10.235474,-0.18252563,-0.33406067,-0.2593994,51.750183,-29.849243,-241.20026,10.265252833413754,0.460651913670296,248.48868016928685,44.43493749999869,26.047625178094016
12:15:54:09,0.6251526,0.6326752,10.324051,-0.13139343,-0.24351501,-0.27537537,51.899719000000005,-29.999541999999998,-241.04996,10.362293314348076,0.3903785188059173,248.39221969450216,44.43493749999868,26.047625304041325
12:15:54:10,0.66825867,0.7619629,10.290543,-0.11968994,-0.20196533,-0.29562378,52.049255,-30.149841,-240.89966,10.340330378950934,0.3775037689357563,248.29575921971747,44.434937499998675,26.047625429988635
12:15:54:11,0.5964203,0.82901,10.312088,-0.12287903,-0.15722656,-0.31906128,51.899719000000005,-29.8500055,-240.29999,10.362535098811298,0.37632372709997025,247.64639923222586,44.43493749999867,26.04762555593594
12:15:54:12,0.5557251,0.8050537,10.376724,-0.13352966,-0.10183716,-0.34675598,51.750183,-29.55017,-239.70032,10.422732022787004,0.38528001105993237,246.99703924473425,44.43493749999866,26.04762568188325
12:15:54:13,0.49586487,0.8194275,10.415039,-0.1441803,-0.050689697,-0.36486816,51.3748165,-29.55017,-239.47525000000002,10.458985647211557,0.3955833394770657,246.70039164280743,44.434937499998654,26.04762580783056
12:15:54:14,0.49108887,0.8697052,10.522781,-0.15164185,-0.010223389,-0.37231445,50.99945,-29.55017,-239.25018,10.570074521360098,0.4021415398001931,246.4037440408806,44.43493749999865,26.047625933777866
12:15:54:15,0.53178406,0.885269165,10.753822,-0.1186142,-0.007026672499999999,-0.37924194,50.550079,-28.874969,-239.025115,10.803335185506036,0.39885003750061465,246.01348765324354,44.43493749999864,26.047626059725175
12:15:54:16,0.57247925,0.90083313,10.984863,-0.08558655,-0.003829956,-0.38616943,50.100708,-28.199768,-238.80005,11.036595849651974,0.3955585352010361,245.62323126560645,44.43493749999863,26.047626185672485
12:15:54:17,0.73768616,0.8912506,10.93219,-0.028076172,-0.028320312,-0.4064026,49.850463999999995,-27.699788666666667,-238.90025,10.993238226235066,0.40835448423240184,245.6141722743045,44.434937499998625,26.047626311619794
12:15:54:18,0.74246978,0.829002375,10.772972,-0.008895874000000002,-0.06294250600000001,-0.44049836,49.60022,-27.19980933333333,-239.00045,10.830428107233974,0.44649120106289275,245.6051132830026,44.43493749999862,26.047626437567104
12:15:54:19,0.7472534,0.76675415,10.613754,0.010284424,-0.0975647,-0.47459412,49.349976,-26.69983,-239.10065,10.667617988232882,0.4846279178933836,245.59605429170065,44.43493749999861,26.04762656351441
12:15:54:20,0.5653076,0.6925354,10.656845,-0.027008057,-0.13058472,-0.49908447,49.49951,-27.2995,-237.15057,10.694275259076509,0.5165918238179681,243.79470265330826,44.434937499998604,26.04762668946172
12:15:54:21,0.36180115,0.536911,10.745438,-0.07281494,-0.13697815,-0.506546,49.424743,-26.249695,-237.75024,10.764925048782565,0.5297677596651443,244.2504614058638,44.4349374999986,26.04762681540903
12:15:54:22,0.22293091,0.4650879,10.917816,-0.10583496,-0.114608765,-0.48736572,49.349976,-25.19989,-238.34991,10.9299913611684,0.5117240983226657,244.7062201584193,44.43493749999859,26.047626941356338
12:15:54:23,0.295951845,0.44473267,10.941756999999999,-0.11914825500000001,-0.082649231,-0.44369506000000003,49.60022,-25.099690666666667,-238.84989,10.955049636402073,0.4680736347343844,245.23363391268165,44.43493749999858,26.047627067303644
12:15:54:24,0.36897278,0.42437744,10.965698,-0.13246155,-0.050689697,-0.4000244,49.850463999999995,-24.99949133333333,-239.34987,10.980107911635745,0.42442317114610306,245.76104766694397,44.434937499998576,26.047627193250953
12:15:54:25,0.5988159,0.44114685,10.898666,-0.13246155,-0.052825928,-0.38298035,50.100708,-24.899292,-239.84985,10.924015360887852,0.40866929097203547,246.2884614212063,44.43493749999857,26.047627319198263
12:15:54:26,1.2715912,0.38607788,10.721497,-0.14524841,-0.11567688,-0.36593628,49.049377,-23.399353,-239.39972,10.803541004242623,0.41035058449367523,245.4905233221542,44.43493749999856,26.047627445145572
12:15:54:27,1.4607391,0.38368225,10.716705,-0.15803528,-0.15829468,-0.37765503,47.8500365,-23.2498165,-239.39972,10.822603053067171,0.4389255940649642,245.24233949300051,44.434937499998554,26.047627571092878
12:15:54:28,1.7887421,0.55126953,10.582626,-0.25497437,-0.37879944,-0.48843384,46.650696,-23.10028,-239.39972,10.746881847814967,0.6686318577201927,244.99415566384684,44.43493749999855,26.047627697040188
12:15:54:29,1.8845062,0.51297,10.721497,-0.30290222,-0.43312073,-0.5235901,47.20052066666667,-23.450215,-238.80005,10.897935573297698,0.7439690278866932,244.54946092659634,44.43493749999854,26.047627822987497
12:15:54:30,1.8821106,0.47225952,10.898666,-0.35298157,-0.47253418,-0.5566101,47.750345333333335,-23.800150000000002,-238.20038,11.07006277960604,0.8109866481329686,244.10476618934587,44.43493749999853,26.047627948934807
12:15:54:31,1.800705,0.14665222,11.863525,-0.4658966,-0.4885254,-0.61946106,48.30017,-24.150085,-237.60071,12.000302946021026,0.9162143380197908,243.66007145209537,44.434937499998526,26.047628074882113
12:15:54:32,1.795929,0.043701172,12.438141,-0.47547913,-0.43844604,-0.635437,47.325134000000006,-24.150085,-238.20038,12.5672042356825,0.9066948296015802,244.05628297895908,44.43493749999852,26.047628200829422
12:15:54:33,1.6809998,0.041305542,12.847549,-0.43074036,-0.3670807,-0.64183044,46.350098,-24.150085,-238.80005,12.957120890954169,0.8557054468425529,244.45249450582278,44.43493749999851,26.04762832677673
12:15:54:34,1.685791,0.15383911,13.031891,-0.33805847,-0.27546692,-0.63757324,47.250366,-23.249817,-237.44965,13.141375148869603,0.7724410589275565,243.21901110478586,44.434937499998505,26.04762845272404
12:15:54:35,1.7240906,0.19692993,12.998383,-0.28053284,-0.21368408,-0.635437,47.5502015,-22.5746155,-237.749485,13.113703916477114,0.7267322349620333,243.5077101401833,44.4349374999985,26.047628578671347
12:15:54:36,1.824646,0.17538452,12.356735,-0.1441803,-0.007019043,-0.6482239,47.850037,-21.899414,-238.04932,12.49195711709725,0.6641019879536093,243.7964091755807,44.43493749999849,26.047628704618656
12:15:54:37,1.8462067,0.13468933,12.160416,-0.11755371,0.051574707,-0.65675354,47.850037,-21.899414,-238.04932,12.300501521799701,0.6691816176789613,243.7964091755807,44.43493749999849,26.047628830565966
12:15:54:38,1.7911377,0.03413391,11.72467,-0.081329346,0.23478699,-0.6641998,47.850037,-21.899414,-238.04932,11.860743062433869,0.7091549672068073,243.7964091755807,44.43493749999848,26.047628956513275
12:15:54:39,1.6163635,-0.30345154,11.197937,-0.053634644,0.34451294,-0.6503601,47.850037,-21.899414,-238.04932,11.318061090894924,0.7379255386124405,243.7964091755807,44.434937499998476,26.04762908246058
12:15:54:40,1.6091766,-0.42555237,10.87233,-0.007827759,0.4073639,-0.6279907,45.44983,-22.050476,-238.20038,10.99900467217376,0.7485846245553419,243.4981141015262,44.43493749999847,26.04762920840789
12:15:54:41,1.6115723,-0.45907593,10.664032,0.022003174,0.41375732,-0.616272,45.6001285,-21.67511,-238.95035000000001,10.79488279161273,0.7426105557448377,244.22663058286966,44.43493749999846,26.0476293343552
12:15:54:42,1.5804443,-0.51893616,9.933807,0.1253357,0.35836792,-0.5789795,45.750427,-21.299744,-239.70032,10.072120950266982,0.6923538583700292,244.95514706421312,44.434937499998455,26.04762946030251
12:15:54:43,1.5636902,-0.53808594,9.289764,0.15835571,0.26249695,-0.55981445,45.650228,-21.200053,-239.45007333333334,9.43580302338374,0.6382580967584423,244.68293808640772,44.43493749999845,26.047629586249816
12:15:54:44,1.5421371499999998,-0.54048157,8.97612,0.127464293,0.153839112,-0.5401077249999999,45.550029,-21.100362,-239.19982666666667,9.123732367218118,0.5847344270428385,244.41072910860234,44.43493749999844,26.047629712197125
12:15:54:45,1.5205841,-0.5428772,8.662476,0.096572876,0.045181274,-0.520401,45.44983,-21.000671,-238.94958,8.811661711052498,0.5312107573272349,244.13852013079693,44.43493749999843,26.047629838144434
12:15:54:46,1.6403046,-0.5237274,8.940201,0.031585693,-0.018737793,-0.5054779,42.900085,-20.100403,-239.84985,9.104508964831266,0.5068102882511475,244.48393411181877,44.434937499998426,26.047629964091744
12:15:54:47,1.7073364,-0.423172,9.25145,-0.012084961,-0.032592773,-0.5001526,42.900085,-20.200093666666668,-239.49991666666668,9.417186375284762,0.5013591112376048,244.148953550225,44.43493749999842,26.047630090039053
12:15:54:48,1.721695,-0.40400696,9.402283,-0.015289307,-0.02619934,-0.5012207,42.900085,-20.29978433333333,-239.14998333333332,9.56715113860142,0.5021377882946729,243.8139729886312,44.43493749999841,26.04763021598636
12:15:54:49,1.6163635,-0.34176636,9.569885,0.014541626,0.023864746,-0.51400757,42.900085,-20.399475,-238.80005,9.711443462337867,0.5147667112446892,243.47899242703744,44.434937499998405,26.04763034193367
12:15:54:50,1.3434143,-0.24838257,9.359192,0.03477478,0.09524536,-0.5150604,41.09955,-20.399475,-239.84985,9.458378866137066,0.5249458825190821,244.19922632043827,44.4349374999984,26.04763046788098
12:15:54:51,1.057312,-0.17655945,9.2143405,0.036376953000000004,0.16075897,-0.476715075,41.249848,-19.8745725,-240.75011999999998,9.280600335780926,0.509864196251832,245.06636964859115,44.43493749999839,26.047630593828288
12:15:54:52,0.7712097,-0.10473633,9.069489,0.037979126,0.22627258,-0.43836975,41.400146,-19.34967,-241.65039,9.102821805424787,0.4947825099845818,245.933512976744,44.434937499998384,26.047630719775594
12:15:54:53,0.725708,0.05567932,8.89711,0.06034851,0.2550354,-0.379776,41.35030066666667,-19.249979333333332,-241.70023666666665,8.92683138857454,0.4614269260547981,245.96634146527805,44.43493749999838,26.047630845722903
12:15:54:54,0.7328949,0.3022766,8.681641,0.094436646,0.24971008,-0.33078003,41.30045533333333,-19.15028866666667,-241.75008333333332,8.717763275647863,0.425075090317154,245.99916995381207,44.43493749999837,26.047630971670213
12:15:54:55,0.8119049,0.5057831,8.437424,0.13066101,0.22946167,-0.3009491,41.25061,-19.050598,-241.79993,8.491473951362368,0.4003689777245722,246.03199844234612,44.43493749999836,26.047631097617522
12:15:54:56,0.8023224,0.72366333,7.98732,0.17007446,0.20497131,-0.2732544,39.75067,-18.299866,-241.49933,8.060067656733935,0.3815842331475027,245.43212351180875,44.434937499998355,26.047631223564828
12:15:54:57,0.79992676,0.7835083,7.5515747,0.17007446,0.19644165,-0.27005005,39.52560325,-18.262482000000002,-241.537095,7.6341370519013525,0.37475548468837194,245.43047946497802,44.43493749999835,26.047631349512137
12:15:54:58,0.7249094733333333,0.8952382333333334,7.346471133333333,0.12213643200000002,0.18614705333333334,-0.28070576666666663,39.3005365,-18.225098000000003,-241.57486,7.439217242164403,0.364976229870068,245.42883541814726,44.43493749999834,26.047631475459447
12:15:54:59,0.6498921866666666,1.0069681666666668,7.141367566666667,0.07419840400000001,0.17585245666666666,-0.29136148333333334,39.075469749999996,-18.187714,-241.61262499999998,7.244297432427453,0.3551969750517641,245.4271913713165,44.434937499998334,26.047631601406756
12:15:54:60,0.5748749,1.1186981,6.936264,0.026260376,0.16555786,-0.3020172,38.850403,-18.15033,-241.65039,7.049377622690504,0.3454177202334602,245.42554732448576,44.43493749999833,26.047631727354062
12:15:54:61,0.5198059,1.1234894,6.869217,-0.008895874,0.16023254,-0.31053162,39.4500735,-18.225098000000003,-241.425325,6.979868823887464,0.349547551084112,245.3060366440959,44.43493749999832,26.04763185330137
12:15:54:62,0.39770508,1.180954,6.8381042,-0.13885498,0.13040161,-0.34675598,40.049744,-18.299866,-241.20026,6.950718720451248,0.3956323988592857,245.18652596370603,44.43493749999831,26.04763197924868
12:15:54:63,0.22053528,1.2815094,6.790207,-0.25071716,0.117614746,-0.36273193,40.049744,-17.6246645,-241.20026,6.91359626062023,0.4563625486788273,245.1379810590936,44.434937499998306,26.04763210519599
12:15:54:64,0.007446289,1.315033,7.0440063,-0.30717468,0.11122131,-0.36380005,40.049744,-16.949463,-241.20026,7.165709454949215,0.4889549470157971,245.08943615448115,44.4349374999983,26.047632231143297
12:15:54:65,-0.28224182,1.228836,7.8819733,-0.4328766,0.09738159,-0.34249878,40.249634,-17.099507666666668,-241.50034666666664,7.982180244880832,0.5605093569245535,245.42803300943305,44.43493749999829,26.047632357090606
12:15:54:66,-0.43427276,1.1665878,8.215965149999999,-0.45098115,0.106430053,-0.31693267999999997,40.449524,-17.249552333333334,-241.80043333333333,8.311538093502296,0.5623323120770978,245.76662986438495,44.434937499998284,26.047632483037916
12:15:54:67,-0.5863037,1.1043396,8.549957,-0.4690857,0.115478516,-0.29136658,40.649414,-17.399597,-242.10052,8.640895942123759,0.5641552672296419,246.10522671933686,44.43493749999828,26.047632608985225
12:15:54:68,-0.85206604,1.0923615,8.844437,-0.4648285,0.1335907,-0.23916626,39.824677,-17.549896,-241.42532,8.952281051786327,0.5395484310616866,245.3176047748892,44.43493749999827,26.04763273493253
12:15:54:69,-0.9957123,1.046875,8.971329,-0.45950317,0.1485138,-0.20507812,38.99994,-17.700195,-240.75012,9.086921055904321,0.5246489753475397,244.52998283044153,44.43493749999826,26.04763286087984
12:15:54:70,-1.1369781,0.98223877,9.301727,-0.4382019,0.16767883,-0.11453247,38.7748725,-17.099762,-240.59982000000002,9.422294698410772,0.4829645762145292,244.30421358499973,44.434937499998256,26.04763298682715
12:15:54:71,-0.97416687,1.1977081,9.924225,-0.31356812,0.15596008,0.08999634,38.549805,-16.499329,-240.44952,10.043592366978869,0.36159072671645826,244.0784443395579,44.434937499998256,26.04763311277446
12:15:54:72,-0.962204,1.2743225,10.017593,-0.26669312,0.14105225,0.13154602,38.39976,-16.699727666666668,-240.99985333333333,10.144057565159576,0.3291281101079598,244.61094770884807,44.43493749999825,26.04763323872177
12:15:54:73,-0.941848765,1.380867,9.960135999999999,-0.18360138,0.10323333999999999,0.20931244,38.249715,-16.900126333333333,-241.55018666666666,10.100065046202126,0.3201239368069998,245.14345107813824,44.43493749999824,26.047633364669075
12:15:54:74,-0.92149353,1.4874115,9.902679,-0.10050964,0.06541443,0.28707886,38.09967,-17.100525,-242.10052,10.056072527244675,0.31111976350603976,245.6759544474284,44.434937499998235,26.047633490616384
12:15:54:75,-0.8472748,1.50177,9.838028,-0.06109619,0.02281189,0.37016296,36.149597,-15.899658,-242.10052,9.987991922723959,0.3758639962989935,245.3003348388456,44.43493749999823,26.047633616563694
12:15:54:76,-0.83291626,1.5281067,9.835632,-0.050445557,0.010025024,0.41171265,36.5249635,-15.750122000000001,-241.72516,9.9884191152645,0.4149127155164847,244.97630791859442,44.43493749999822,26.047633742511003
12:15:54:77,-0.5527954,1.5544434,10.127731,-0.024871826,-0.04324341,0.5715027,36.90033,-15.600586,-241.3498,10.26122859342027,0.5736758111898151,244.65228099834323,44.43493749999821,26.04763386845831
12:15:54:78,-0.45463562,1.5209198,10.271378,-0.018478394,-0.05708313,0.61091614,36.2998965,-14.850616500000001,-241.500095,10.393319806678173,0.6138554104086041,244.66602656608262,44.434937499998206,26.04763399440562
12:15:54:79,0.0864563,1.3796692,10.664032,0.017730713,-0.07733154,0.70466614,35.699463,-14.100647,-241.65039,10.75325719446263,0.7091184062797691,244.679772133822,44.4349374999982,26.047634120352928
12:15:54:80,0.28279114,1.2791138,10.8124695,0.06248474,-0.079452515,0.7547302,36.2998965,-14.6255495,-241.275025,10.891537982793945,0.7614687909985103,244.42982907823034,44.43493749999819,26.047634246300237
12:15:54:81,0.9579468,1.1330719,11.166809,0.11999512,-0.11354065,0.7909546,36.90033,-15.150452,-240.89966,11.26495171958943,0.8080219596566648,244.17988602263867,44.434937499998185,26.047634372247543
12:15:54:82,1.4535522,1.0372925,11.442154,0.19989014,-0.20303345,0.7898865,35.24933,-14.99939,-242.25006,11.580659648240989,0.8397019309078503,245.26024654604055,44.43493749999818,26.047634498194853
12:15:54:83,1.6426849,1.0205383,11.535522,0.27552795,-0.27760315,0.7494049,34.849549333333336,-14.399719333333334,-242.10001666666665,11.696502892528985,0.8453323986841715,245.02087740727288,44.43493749999817,26.047634624142162
12:15:54:84,2.0664673,0.9199829,11.758179,0.33091736,-0.3447113,0.6737671,34.449768666666664,-13.800048666666667,-241.94997333333333,11.973780899711782,0.826011068049012,244.78150826850523,44.43493749999816,26.047634750089472
12:15:54:85,2.0544891,0.76675415,11.875504,0.3522339,-0.34257507,0.5810852,34.049988,-13.200378,-241.79993,12.07627561140342,0.7609772720349504,244.54213912973756,44.434937499998156,26.047634876036778
12:15:54:86,1.716919,0.58000183,11.882675,0.33944702,-0.25202942,0.4980011,34.8747255,-12.675476,-242.099765,12.020073965287791,0.6532596754228954,244.92877844121483,44.43493749999815,26.047635001984087
12:15:54:87,1.3948975,0.457901,11.8371885,0.31707763499999997,-0.144973755,0.4612503,35.699463,-12.150574,-242.3996,11.932622159793144,0.5857102111805512,245.3154177526921,44.43493749999814,26.047635127931397
12:15:54:88,1.072876,0.33580017,11.791702,0.29470825,-0.03791809,0.4244995,34.7244265,-12.675476,-242.47512999999998,11.8451703542985,0.518160746938207,245.2791731180833,44.434937499998135,26.047635253878706
12:15:54:89,0.5988159,0.13708496,11.418213,0.25209045,0.19432068,0.4053192,33.74939,-13.200378,-242.55066,11.434726095614185,0.5153579101415878,245.2429284834745,44.43493749999813,26.047635379826012
12:15:54:90,0.2971496492,0.23764037999999998,11.147667,0.19137573000000002,0.2784729,0.41863249999999996,33.599853499999995,-12.525177,-242.32558999999998,11.15855221120393,0.5471381280671228,244.9652497631844,44.43493749999812,26.04763550577332
12:15:54:91,-0.0045166016,0.3381958,10.877121,0.13066101,0.36262512,0.4319458,33.450317,-11.849976,-242.10052,10.882378326793674,0.5789183459926577,244.68757104289432,44.434937499998114,26.04763563172063
12:15:54:92,-0.0045166016,0.3501587,10.8914795,0.084854126,0.361557,0.45005798,33.700052666666664,-11.950175333333334,-242.45045666666667,10.897107745351331,0.5835031039419621,245.07308433215772,44.43493749999811,26.04763575766794
12:15:54:93,0.2109603892,0.46029665,11.009994500000001,-0.008895874,0.32746887,0.47242737,33.94978833333333,-12.050374666666666,-242.80039333333332,11.02419213577005,0.5748935704270989,245.45859762142112,44.4349374999981,26.047635883615246
12:15:54:94,0.42643738,0.5704346,11.1285095,-0.15589905,0.22627258,0.46070862,34.199524,-12.150574,-243.15033,11.151276526188768,0.5364291442428005,245.84411091068452,44.43493749999809,26.047636009562556
12:15:54:95,0.428833,0.53930664,11.212311,-0.20277405,0.18685913,0.45326233,32.55005,-12.750244,-244.50073,11.23346194877421,0.5305472548367283,246.98720907689722,44.434937499998085,26.047636135509865
12:15:54:96,0.4192505,0.39086914,11.789307,-0.33166504,0.015350342,0.44366455,32.9246525,-12.750244,-244.650265,11.803232998064708,0.5541439927351204,247.1851070615146,44.43493749999808,26.047636261457175
12:15:54:97,0.43841553,0.28552246,12.404617,-0.37535095,-0.118881226,0.45645142,33.299255,-12.750244,-244.7998,12.415645539753404,0.6028009459026935,247.38300504613198,44.43493749999807,26.047636387404484
12:15:54:98,0.487495415,0.048492429999999975,12.9481045,-0.33274078500000004,-0.17587280300000002,0.4745636,32.6248165,-12.149810500000001,-244.725035,12.959609832826182,0.6100795216139412,247.19045937544584,44.434937499998064,26.04763651335179
12:15:54:99,0.5365753,-0.1885376,13.491592,-0.29013062,-0.23286438,0.49267578,31.950378,-11.549377,-244.65027,13.50357412589896,0.6173580973251888,246.9979137047597,44.43493749999806,26.0476366392991
12:15:55:00,0.60839844,-0.38246155,13.608902,-0.21875,-0.21368408,0.50865173,31.900024000000002,-11.349487,-244.95036000000002,13.627862603674387,0.5934972880961119,247.27961426525403,44.43493749999805,26.04763676524641
12:15:55:01,0.70297242,-0.7727203250000001,13.02710725,-0.1356659,-0.17959595,0.529953,31.84967,-11.149597,-245.25045,13.076406927934393,0.575769158507307,247.56131482574833,44.43493749999804,26.04763689119372
12:15:55:02,0.7975464,-1.1629791,12.4453125,0.27340698,0.08139038,0.63009644,31.799316,-10.949707,-245.55054,12.524951252194398,0.6916627027460266,247.84301538624266,44.434937499998036,26.047637017141025
12:15:55:03,0.9579544,-1.1150894,11.12969975,0.37087249,0.099502563,0.6583251999999999,30.149841,-11.549377,-246.44928,11.230019116117766,0.7655127932763711,248.5551219225462,44.43493749999803,26.047637143088334
12:15:55:04,1.1183624,-1.0671997,9.814087,0.468338,0.117614746,0.68655396,29.999541999999998,-10.6498715,-246.89941499999998,9.935086980041135,0.8393628838067156,248.94496531181846,44.43493749999803,26.047637269035643
12:15:55:05,1.4056702,-1.040863,8.93782,0.4076233,0.016418457,0.67163086,29.849243,-9.750366,-247.34955,9.107355864812632,0.7858208017973886,249.3348087010907,44.43493749999802,26.047637394982953
12:15:55:06,1.5804443,-0.9905853,8.650513,0.2787323,-0.11781311,0.6279602,29.6997065,-10.5003355,-247.34955,8.849318537895874,0.6970693198923634,249.3485795483518,44.434937499998014,26.04763752093026
12:15:55:07,1.5900269,-1.0049591,8.770218,0.13703918,-0.21582031,0.5746918,29.55017,-11.250305,-247.34955,8.969662875655942,0.6289903083917975,249.3623503956129,44.43493749999801,26.04763764687757
12:15:55:08,1.4032745,-1.1031189,9.612976,0.043304443,-0.24563599,0.52783203,30.149841000000002,-10.72540275,-248.474885,9.777287875810114,0.5837970248817146,250.52815819972136,44.434937499998,26.047637772824878
12:15:55:09,1.2500458,-1.2754974,10.156464,0.024124146,-0.20089722,0.5011902,30.749512,-10.2005005,-249.60022,10.312287287638974,0.540493555928281,251.69396600382984,44.43493749999799,26.047637898772187
12:15:55:10,1.0740738,-1.33654785,10.253426000000001,0.10508728299999999,-0.10289764565,0.49480439,30.149841000000002,-11.47537225,-248.85025000000002,10.397574736609656,0.531585379769276,250.93648116739527,44.434937499997986,26.047638024719493
12:15:55:11,0.8981018,-1.3975983,10.350388,0.18605042,-0.0048980713,0.48841858,29.55017,-12.750244,-248.10028,10.482862185580336,0.522677203610271,250.1789963309607,44.43493749999798,26.047638150666803
12:15:55:12,0.7520447,-1.388031,9.933807,0.24357605,0.051574707,0.49693298,28.799946666666667,-12.5,-248.35001666666668,10.058465230889258,0.5558161828765142,250.3292795245576,44.43493749999797,26.047638276614112
12:15:55:13,0.74606325,-1.18572235,8.985702499999999,0.31707763499999997,0.0957794185,0.51876831,28.049723333333333,-12.249756,-248.59975333333333,9.094875405510024,0.6186425846029919,250.4795627181545,44.434937499997964,26.04763840256142
12:15:55:14,0.7400818,-0.9834137,8.037598,0.39057922,0.13998413,0.54060364,27.2995,-11.999512,-248.84949,8.13128558013079,0.6814689863294697,250.6298459117514,44.43493749999796,26.047638528508728
12:15:55:15,0.804718,-0.8972168,7.6976166,0.388443,0.13465881,0.5395508,28.649902,-11.099243,-250.95062,7.791397202448468,0.6783332699641498,252.82449200614852,44.43493749999795,26.047638654456037
12:15:55:16,1.0920258,-0.70329285,6.9171143,0.32240295,0.094177246,0.51078796,28.050232,-11.099243,-250.95062,7.038011893993306,0.6113242641297731,252.75794263306764,44.43493749999794,26.047638780403346
12:15:55:17,1.2859497,-0.5835724,6.620224,0.24143982,0.06755066,0.46603394,27.450562,-11.099243,-250.95062,6.769164585615263,0.5291917531292335,252.69139325998677,44.434937499997936,26.047638906350656
12:15:55:18,1.3290558,-0.43992615,6.419113,0.1530304,0.06329346,0.40213013,27.675629,-10.5743405,-250.575255,6.570002743053953,0.43489424790027803,252.32131430799126,44.43493749999793,26.047639032297962
12:15:55:19,1.3051147,-0.43992615,6.387985,0.059280396,0.05795288,0.32330322,27.900696,-10.049438,-250.19989,6.534769449478299,0.3337629004436826,251.95123535599575,44.43493749999792,26.04763915824527
12:15:55:20,1.2380676,-0.45188904,6.3736267,-0.025939941,0.045181274,0.24552917,27.3750305,-10.12496925,-250.27466,6.5084662092996055,0.25099562024114175,251.97142684707165,44.434937499997915,26.04763928419258
12:15:55:21,0.96273804,-0.45907593,6.4765778,-0.09944153,0.021743774,0.17842102,26.849365,-10.2005005,-250.34943,6.56381560090023,0.20541535963589574,251.99161833814756,44.43493749999791,26.047639441626718
12:15:55:22,0.85739136,-0.46147156,6.5699463,-0.15803528,-0.013412476,0.1219635,27.4497985,-10.57510375,-251.474765,6.641706883759262,0.20007533473514164,253.19007212799193,44.4349374999979,26.04763959906085
12:15:55:23,0.59402466,-0.5237274,6.718384,-0.20703125,-0.067733765,0.085739136,28.050232,-10.949707,-252.6001,6.764897579243523,0.23409613589221037,254.3885259178363,44.434937499997886,26.047639756494988
12:15:55:24,0.4407959,-0.49020386,6.905136,-0.25071716,-0.13804626,0.06336975,27.674866,-10.57510375,-251.85012999999998,6.9365340068590235,0.2931409037195521,253.58710617277075,44.43493749999788,26.047639913929125
12:15:55:25,0.42164612,-0.42555237,7.3720093,-0.28373718,-0.21687317,0.041000366,27.2995,-10.2005005,-251.10016,7.396309984675478,0.3594743234117498,252.78568642770517,44.43493749999787,26.04764007136326
12:15:55:26,0.46713257,-0.3872528,7.8867645,-0.29545593,-0.26268005,0.019699097,26.9248965,-9.825134250000001,-251.25045999999998,7.9100715450318715,0.39583212308096316,252.88054844860778,44.434937499997865,26.047640228797395
12:15:55:27,0.34742737,-0.28909302,8.470947,-0.2890625,-0.2669525,-0.0005493164,26.550293,-9.449768,-251.40076,8.482996146907462,0.39347308409979875,252.9754104695104,44.43493749999786,26.04764038623153
12:15:55:28,0.31629944,-0.22683716,8.662476,-0.27734375,-0.2669525,-0.015457153,26.1001585,-9.749603,-252.225495,8.671216228619672,0.3852559104013563,253.76037889093453,44.434937499997844,26.04764054366567
12:15:55:29,0.2516632,-0.17176819,8.873169,-0.27841187,-0.24777222,-0.031433105,25.650024,-10.049438,-253.05023,8.87839888605435,0.37402176734859477,254.5453473123587,44.43493749999784,26.0476407010998
12:15:55:30,0.2301178,-0.07600403,9.043152,-0.28373718,-0.20303345,-0.038894653,25.724792,-10.12496925,-253.350065,9.046398670717375,0.351058632090489,254.85396076037628,44.43493749999783,26.04764085853394
12:15:55:31,0.0816803,-0.030517578,9.462143,-0.28585815,-0.15615845,-0.037826538,25.79956,-10.2005005,-253.6499,9.462544750035482,0.3279194876869785,255.16257420839386,44.43493749999782,26.047641015968075
12:15:55:32,0.06011963,0.03173828,9.838028,-0.265625,-0.11354065,-0.025039673,25.09969033333333,-10.650126,-253.19976666666668,9.838262886155903,0.2899570744978805,254.66612999435347,44.43493749999781,26.04764117340221
12:15:55:33,0.03617859,0.12510681,9.986481,-0.2464447,-0.09011841,-0.017593384,24.399820666666667,-11.0997515,-252.74963333333332,9.98733014211725,0.26299400209812684,254.16968578031307,44.4349374999978,26.047641330836345
12:15:55:34,0.07209778,0.26637268,10.204346,-0.19851685,-0.04750061,0.0069122314,23.699951,-11.549377,-252.2995,10.208076693591565,0.20423767191001208,253.67324156627268,44.434937499997794,26.047641488270482
12:15:55:35,0.43122864,0.47705078,10.630508,-0.08772278,-0.029388428,0.04953003,25.349426,-10.2005005,-254.6997,10.649940653577318,0.10493898085573579,256.1612398257589,44.43493749999779,26.047641645704616
12:15:55:36,0.7113495,0.6207123,10.601776,0.0049591064,-0.011276245,0.044189453,24.7497555,-10.500335750000001,-253.72466500000002,10.643728492624073,0.04587433044771067,255.14580570768456,44.43493749999778,26.047641803138752
12:15:55:37,0.78796387,0.63027954,10.53714,0.080581665,0.023864746,0.028213501,24.150085,-10.800171,-252.74963,10.585341692102716,0.08865062027134238,254.1303715896102,44.434937499997766,26.04764196057289
12:15:55:38,0.8669739,0.73802185,10.216324,0.104019165,0.029205322,0.017562866,23.6251825,-9.8999025,-252.825165,10.279571784239586,0.10945954404507112,254.12165002301975,44.43493749999776,26.047642118007026
12:15:55:39,1.0752716,0.91519165,9.931412,0.09336853,0.018539429,-0.016525269,23.10028,-8.999634,-252.9007,10.031287508776742,0.09661509891072566,254.1129284564293,44.43493749999775,26.04764227544116
12:15:55:40,1.254837,1.0396881,9.924225,0.04437256,0.028137207,-0.050613403,23.850250000000003,-9.9746705,-254.17557,10.057127278327325,0.07295439028567684,255.48932042516668,44.434937499997744,26.047642432875296
12:15:55:41,1.3434143,1.1163025,10.087036,-0.016357422,0.045181274,-0.0974884,24.60022,-10.949707,-255.45044,10.23714747955927,0.10868716993881643,256.86571239390406,44.43493749999774,26.047642590309433
12:15:55:42,1.4080658,1.1402435,10.400665,-0.069610596,0.06329346,-0.15927124,23.550415,-10.649872,-255.37491,10.557302542725907,0.1849838507691534,256.6818076007139,44.43493749999772,26.047642747743566
12:15:55:43,1.4296112,1.0540619,10.769379,-0.102645874,0.10057068,-0.22531128,22.50061,-10.350037,-255.29938,10.914868699065421,0.2672373664368901,256.4979028075237,44.434937499997716,26.047642905177703
12:15:55:44,1.309906,0.9463196,11.116531,-0.11222839,0.14318848,-0.29029846,22.50061,-10.350037,-254.924775,11.23337153254272,0.34259502069509723,256.12505331817584,44.43493749999771,26.04764306261184
12:15:55:45,1.0106201,0.7835083,11.241043,-0.106903076,0.19644165,-0.32652283,22.50061,-10.350037,-254.55017,11.31354435933063,0.39577108032825387,255.752203828828,44.4349374999977,26.047643220045977
12:15:55:46,0.68740845,0.6039429,11.274551,-0.09411621,0.2358551,-0.33717346,22.725677500000003,-10.199737500000001,-255.45043500000003,11.31162135395244,0.4221035788869193,256.6621738424964,44.43493749999769,26.04764337748011
12:15:55:47,0.38813782,0.53930664,11.34877,-0.08985901,0.20497131,-0.31585693,22.950745,-10.049438,-256.3507,11.368204921277698,0.38710913168035843,257.5721438561648,44.43493749999768,26.047643534914247
12:15:55:48,0.2803955,0.50338745,11.492432,-0.07493591,0.12826538,-0.27218628,21.975708,-10.4248045,-256.57501,11.506868115862881,0.31008510014883156,257.72749528433155,44.43493749999767,26.047643692348384
12:15:55:49,0.507843,0.42677307,11.600159,-0.051498413,0.021743774,-0.21572876,21.000671,-10.800171,-256.79932,11.619110490532707,0.2228537101787162,257.8828467124983,44.434937499997666,26.047643849782517
12:15:55:50,0.86457825,0.25679016,11.688751,-0.018478394,-0.12739563,-0.1720581,21.5255735,-10.1249695,-256.72455,11.723495070867173,0.2148838927503086,257.8257039931143,44.43493749999766,26.047644007216654
12:15:55:51,1.206955,0.10835266,11.5594635,0.007080078,-0.2669525,-0.15180969,22.050476,-9.449768,-256.64978,11.622808484991324,0.30718064186831856,257.76856127373026,44.434937499997645,26.04764416465079
12:15:55:52,1.4559479,0.18257141,11.358353,-0.018478394,-0.39797974,-0.15820312,21.450043,-9.825134250000001,-256.64978,11.452742007042366,0.4286695133468454,257.73289919916385,44.43493749999764,26.047644322084924
12:15:55:53,1.6450806,0.38368225,11.391876,-0.12501526,-0.5343323,-0.19761658,20.84961,-10.2005005,-256.64978,11.516437862847932,0.5832599204017485,257.69723712459745,44.43493749999763,26.04764447951906
12:15:55:54,1.7911377,0.44114685,11.98085,-0.27841187,-0.58651733,-0.2551422,20.3247075,-11.325073249999999,-256.80008,12.122027533631748,0.6975767269398154,257.8549398664385,44.43493749999762,26.047644636953198
12:15:55:55,1.8270416,0.22566223,12.775726,-0.40516663,-0.4981079,-0.31585693,19.799805,-12.449646,-256.95038,12.907679081742586,0.7155676616064982,258.01264260827946,44.434937499997616,26.04764479438733
12:15:55:56,1.6498718,-0.006576538,13.453278,-0.488266,-0.3212738,-0.37445068,19.4999695,-11.6249085,-257.02513999999996,13.554069837232332,0.6941425308068239,258.0272957804407,44.4349374999976,26.047644951821468
12:15:55:57,1.2332764,-0.18614197,13.989578,-0.4967804,-0.0975647,-0.40960693,19.200134,-10.800171,-257.0999,14.0450671813942,0.6512199886476726,258.0419489526019,44.434937499997595,26.047645109255605
12:15:55:58,0.7831726,-0.49739075,14.1332245,-0.4222107,0.12719727,-0.40534973,19.274901999999997,-10.649872,-257.174675,14.163643304142356,0.5989569469511276,258.1158332891074,44.43493749999759,26.04764526668974
12:15:55:59,0.54374695,-0.87327576,13.936905,-0.2848053,0.31895447,-0.32331848,19.34967,-10.499573,-257.24945,13.974819937217898,0.5360791474685257,258.18971762561296,44.43493749999758,26.047645424123875
12:15:55:60,0.5964203,-1.0911407,13.237793,-0.11968994,0.4638214,-0.2306366,19.574737499999998,-11.2495425,-257.24945,13.296069671609636,0.5316476409189865,258.2394484125829,44.434937499997574,26.04764558155801
12:15:55:61,0.78556824,-1.0671997,12.23703,0.042236328,0.5192261,-0.14329529,19.799805,-11.999512,-257.24945,12.308571642569937,0.5402899133431214,258.2891791995528,44.43493749999756,26.04764573899215
12:15:55:62,1.0249939,-0.94989014,11.2625885,0.15942383,0.4638214,-0.08149719,19.700114,-11.699422333333333,-258.04952000000003,11.348956053022615,0.4971800887482573,259.0652454447721,44.43493749999755,26.047645896426282
12:15:55:63,1.3984833,-0.87327576,10.465317,0.2318573,0.34239197,-0.04421997,19.600423,-11.399332666666666,-258.84959,10.594395971638567,0.4158671355500117,259.8413116899914,44.434937499997545,26.04764605386042
12:15:55:64,1.5804443,-0.83735657,10.146881,0.2552948,0.27633667,-0.036758423,19.500732,-11.099243,-259.64966,10.303308412295813,0.3780060472468342,260.6173779352107,44.43493749999754,26.047646211294555
12:15:55:65,2.0042114,-0.71525574,9.53157,0.27766418,0.06222534,-0.07298279,18.75,-11.8499755,-258.75015499999995,9.766231656805655,0.29376159965075777,259.70122081938916,44.434937499997524,26.047646368728692
12:15:55:66,2.0353394,-0.6817322,9.411865,0.26594543,-0.032592773,-0.11772156,17.999268,-12.600708,-257.85065,9.653526197402389,0.292656157082929,258.7850637035677,44.43493749999752,26.047646526162826
12:15:55:67,2.1670227,-0.6338501,9.378342,0.23718262,-0.07307434,-0.15820312,17.8497315,-13.3506775,-259.125525,9.646297320762475,0.2943190132734112,260.08347785514763,44.43493749999751,26.047646683596962
12:15:55:68,2.3034973,-0.6506195,9.483688,0.22013855,-0.07307434,-0.19122314,17.700195,-14.100647,-260.4004,9.781091126568219,0.3006112599920331,261.38189200672764,44.4349374999975,26.0476468410311
12:15:55:69,2.3082733,-0.6482239,9.481293,0.2276001,-0.021942139,-0.23384094,17.399597,-14.99939,-259.95026,9.77973602935545,0.3270548091742253,260.9633410082767,44.434937499997496,26.047646998465233
12:15:55:70,2.3154602,-0.5931549,9.397507,0.25209045,0.037719727,-0.27644348,18.3746335,-14.099884,-260.32486,9.696717304749429,0.376023098254173,261.35648488103,44.43493749999748,26.04764715589937
12:15:55:71,2.1694183,-0.5644226,9.0407715,0.2787323,0.10270691,-0.3201294,19.34967,-13.200378,-260.69946,9.314531547371447,0.4367187163030663,261.74962875378327,44.434937499997474,26.047647313333506
12:15:55:72,2.0353394,-0.562027,8.537979,0.29045105,0.16981506,-0.35954285,19.34967,-13.200378,-260.69946,8.79520131812583,0.49241245722973803,261.74962875378327,44.43493749999747,26.04764747076764
12:15:55:73,1.8031006,-0.5045624,8.008865,0.27766418,0.21987915,-0.39575195,19.34967,-13.200378,-260.69946,8.224820580258218,0.5310968305201956,261.74962875378327,44.43493749999746,26.047647628201776
12:15:55:74,1.4679108,-0.4638672,7.5587463,0.23931885,0.26887512,-0.4234619,18.824768,-14.700317,-260.84976,7.7139212158121095,0.5557763244974968,261.94575386204895,44.43493749999745,26.047647785635913
12:15:55:75,1.1303406,-0.38964844,7.2786255,0.18284607,0.3061676,-0.42771912,18.299866,-16.200256,-261.00006,7.376170073151314,0.5568796371010339,262.1418789703147,44.43493749999744,26.047647943070046
12:15:55:76,0.9196472,-0.33218384,7.1014557,0.12638855,0.31256104,-0.41279602,18.450165,-16.200256,-261.37466500000005,7.168456607603026,0.532981259918981,262.5254048914471,44.43493749999743,26.047648100504183
12:15:55:77,0.66586304,-0.29626465,7.0128784,0.0869751,0.3019104,-0.38191223,18.600464,-16.200256,-261.74927,7.050646054374324,0.49454171620980863,262.90893081257957,44.434937499997424,26.04764825793832
12:15:55:78,0.54374695,-0.1933136,6.960205,0.070999146,0.28059387,-0.3435669,18.524932999999997,-16.275024000000002,-262.199405,6.984087953026098,0.4492349200473136,263.35639582697434,44.43493749999742,26.047648415372457
12:15:55:79,0.5293884,-0.056854248,6.814163,0.070999146,0.23373413,-0.3020172,18.449402,-16.349792,-262.64954,6.834932470342279,0.38844164472340786,263.80386084136916,44.4349374999974,26.04764857280659
12:15:55:80,0.5964203,0.1035614,6.778244,0.07632446,0.16448975,-0.2743225,17.7749635,-16.799926499999998,-262.199405,6.805221073657934,0.3288390716682008,263.3388667298061,44.434937499997396,26.047648730240727
12:15:55:81,0.6275482,0.2519989,6.7255707,0.07846069,0.09950256,-0.25195312,17.100525,-17.250061,-261.74927,6.759483813844288,0.2820234281040568,262.873872618243,44.43493749999739,26.047648887674864
12:15:55:82,0.7400818,0.3501587,6.706421,0.08164978,0.03239441,-0.24874878,17.024994,-16.799926499999998,-262.049865,6.756213052821671,0.26380303244046477,263.1395974977277,44.43493749999738,26.047649045108997
12:15:55:83,0.78796387,0.37409973,6.687271,0.07418823,-0.021942139,-0.2689972,16.949463,-16.349792,-262.35046,6.743918081935193,0.2799014907825041,263.4053223772124,44.434937499997375,26.047649202543134
12:15:55:84,0.7400818,0.4219818,6.68248,0.043304443,-0.046432495,-0.29562378,17.199707,-16.449991333333333,-262.9501333333333,6.736566533525997,0.3023651280768893,264.02518975428336,44.43493749999736,26.04764935997727
12:15:55:85,0.66825867,0.42437744,6.6489563,-0.013153076,-0.029388428,-0.31799316,17.449951000000002,-16.55019066666667,-263.54980666666665,6.695915601388717,0.3196190434178767,264.6450571313543,44.43493749999735,26.047649517411408
12:15:55:86,0.21813965,0.40283203,6.687271,-0.08453369,-0.013412476,-0.31692505,17.700195,-16.65039,-264.14948,6.702943530922593,0.32827934229093547,265.2649245084252,44.434937499997346,26.04764967484554
12:15:55:87,0.057724,0.3669281,6.8548584,-0.17082214,-0.015548706,-0.29348755,17.8497315,-18.000030000000002,-264.52484,6.864914564275084,0.3399366231776984,265.74003091362874,44.43493749999734,26.047649832279678
12:15:55:88,0.002670288,0.42677307,7.1804657,-0.25816345,-0.036849976,-0.26579285,17.999268,-19.34967,-264.9002,7.193137705660286,0.3723602110298918,266.21513731883226,44.43493749999733,26.047649989713815
12:15:55:89,0.014633179,0.51776123,7.6138153,-0.3359375,-0.044311523,-0.23916626,16.65039,-19.050598,-263.25073,7.631413646483385,0.41475054538748607,264.4638115448739,44.43493749999732,26.047650147147948
12:15:55:90,-0.016494751,0.5871887,8.095047,-0.39344788,-0.06668091,-0.21786499,17.0249935,-19.4252015,-262.5,8.116332212177323,0.45465671874791713,263.7684582961873,44.43493749999731,26.047650304582085
12:15:55:91,-0.023666382,0.7044983,8.667267,-0.44032288,-0.091171265,-0.2029419,17.399597,-19.799805,-261.74927,8.695883807965057,0.49333746359748987,263.0731050475007,44.434937499997304,26.04765046201622
12:15:55:92,-0.06677246,0.78590393,9.17244,-0.46696472,-0.10183716,-0.17524719,16.5748595,-19.200134499999997,-262.724305,9.206289105942952,0.5090564158169899,263.9482075247979,44.4349374999973,26.047650619450355
12:15:55:93,-0.0907135,0.85772705,9.675232,-0.47868347,-0.095443726,-0.14329529,15.750122,-18.600464,-263.69934,9.713600716789214,0.5087051301296145,264.8233100020951,44.43493749999728,26.047650776884492
12:15:55:94,-0.07873535,0.96546936,10.211533,-0.47122192,-0.07839966,-0.10707092,15.2252195,-18.375397,-264.074705,10.257374739694724,0.48955161779555834,265.151412912924,44.434937499997275,26.04765093431863
12:15:55:95,-0.20083618,1.0564575,10.623337,-0.44352722,-0.041107178,-0.068725586,14.700317,-18.15033,-264.45007,10.677627387958067,0.45069879202755303,265.47951582375293,44.43493749999727,26.047651091752762
12:15:55:96,-0.26309204,1.0372925,11.020767,-0.3955841,0.00044250488,-0.021850586,14.8498535,-18.75,-264.45007,11.072601249045167,0.39618735983360476,265.53022345109156,44.43493749999726,26.0476512491869
12:15:55:97,-0.3756256,1.0612335,11.454117,-0.3199463,0.056900024,0.034606934,14.99939,-19.34967,-264.45007,11.50930525195099,0.32680405061102125,265.5809310784302,44.434937499997254,26.047651406621036
12:15:55:98,-0.39237976,1.0612335,11.655228,-0.2102356,0.113357544,0.107040405,15.374756,-19.4999695,-264.67513499999995,11.710017854365718,0.26173763312071874,265.83774602140613,44.43493749999724,26.047651564055172
12:15:55:99,-0.2798462,1.046875,11.8515625,-0.07281494,0.16023254,0.18374634,15.750122,-19.650269,-264.9002,11.900999741731184,0.2544389903797191,266.094560964382,44.43493749999723,26.047651721489306
12:15:56:00,-0.1816864,1.0971527,11.499603,0.061416626,0.16767883,0.2551117,16.200256,-19.3504335,-265.72494,11.553251626822263,0.311400339524996,266.92118820827864,44.434937499997226,26.047651878923443
12:15:56:01,0.03378296,1.1330719,11.075836,0.15089417,0.12080383,0.3264923,16.65039,-19.050598,-266.54968,11.133693740976172,0.3794203972402483,267.7478154521753,44.43493749999722,26.0476520188649
12:15:56:02,0.33067322,1.1594086,10.728683,0.1849823,0.047302246,0.37976074,16.100056666666667,-19.400533,-266.0995466666667,10.796212854268303,0.425057847163515,267.29272888838176,44.43493749999721,26.04765215880635
12:15:56:03,0.5700836,1.1953125,10.587418,0.17539978,-0.04963684,0.40745544,15.549723333333334,-19.750468,-265.6494133333333,10.66991973682882,0.44637297666282133,266.8376423245882,44.434937499997204,26.047652298747806
12:15:56:04,1.2165222,1.3700867,10.807678,0.1295929,-0.15402222,0.38934326,14.99939,-20.100403,-265.19928,10.961887044678654,0.4382982296240381,266.3825557607947,44.4349374999972,26.04765243868926
12:15:56:05,1.4032745,1.3557281,11.28653,0.07739258,-0.2275238,0.3446045,14.624786499999999,-18.75,-265.95001,11.453948552546406,0.42012968524700367,267.01494769243345,44.43493749999719,26.047652578630714
12:15:56:06,1.4200287,1.3341827,11.537918,0.040100098,-0.23498535,0.28814697,14.250183,-17.399597,-266.70074,11.701285261052607,0.3739716685718492,267.6473396240723,44.434937499997176,26.047652718572166
12:15:56:07,1.2691956,1.0780029,12.469254,0.02519226,-0.16362,0.24552917,14.8498535,-18.899535999999998,-265.575405,12.579954015813561,0.29612620229354325,266.66630782324387,44.43493749999717,26.047652858513622
12:15:56:08,1.1183624,0.99180603,13.017532,0.049697876,-0.027267456,0.2199707,15.449524,-20.399475,-264.45007,13.103074182416204,0.227157438562142,265.68527602241545,44.43493749999716,26.047652998455074
12:15:56:09,0.90049744,0.7715454,13.209076,0.12213135,0.16448975,0.21357727,15.224457000000001,-20.624542499999997,-265.049735,13.262196903887519,0.2959530279766333,266.28671961271993,44.434937499997154,26.04765313839653
12:15:56:10,0.7640228,0.58000183,12.885849,0.21481323,0.31895447,0.22315979,14.99939,-20.84961,-265.6494,12.921502908428423,0.4446087826267694,266.8881632030244,44.43493749999715,26.047653278337982
12:15:56:11,0.5557251,0.4794464,12.402222,0.2829895,0.3796692,0.23487854,14.8498535,-21.224975999999998,-266.024775,12.423920869617891,0.5285827154679025,267.2832705695047,44.43493749999714,26.047653418279438
12:15:56:12,0.38095093,0.46269226,11.80368,0.32026672,0.36795044,0.26257324,14.700317,-21.600342,-266.40015,11.818886126912798,0.5539882711753468,267.6783779359849,44.43493749999713,26.04765355822089
12:15:56:13,0.45996094,0.43395996,11.370316,0.306427,0.25717163,0.28707886,14.77508525,-21.67511,-267.224885,11.387887040758041,0.49239113057076533,268.50931754531535,44.434937499997126,26.047653698162346
12:15:56:14,0.73768616,0.48423767,11.066254,0.24996948,0.09843445,0.28175354,14.8498535,-21.749878,-268.04962,11.101380300855322,0.3893059711599663,269.3402571546458,44.43493749999712,26.0476538381038
12:15:56:15,0.9866791,0.46748352,11.061478,0.14875793,-0.0741272,0.23806763,15.14968875,-22.049712999999997,-266.47491,11.115231533006066,0.29034455388648467,267.81507407627043,44.43493749999711,26.047653978045254
12:15:56:16,0.96513367,0.35494995,11.255402,0.007080078,-0.22966003,0.16137695,15.449524,-22.349548,-264.9002,11.302280595064726,0.2807781631028123,266.2898909978951,44.434937499997105,26.047654117986706
12:15:56:17,0.6634674,0.09877014,12.021545,-0.1399231,-0.30422974,0.087875366,15.299987999999999,-22.425079,-266.24985,12.040244545624617,0.3462026697813169,267.6303592493116,44.43493749999709,26.047654257928162
12:15:56:18,0.3139038,-0.30584717,12.7374115,-0.24964905,-0.28504944,0.060180664,15.150452,-22.50061,-267.5995,12.744949188105213,0.38366592724621373,268.97082750072803,44.43493749999708,26.047654397869614
12:15:56:19,-0.10028076,-0.7846832,13.556229,-0.27308655,-0.17959595,0.0793457,15.750122000000001,-22.6501465,-267.44995,13.579290432700429,0.3363431419782407,268.8697925705079,44.434937499997076,26.04765453781107
12:15:56:20,-0.3660431,-1.1462097,14.080551,-0.17401123,-0.00062561035,0.16456604,16.349792,-22.799683,-267.3004,14.131868266122236,0.2395042402040192,268.7687576402878,44.43493749999707,26.047654677752522
12:15:56:21,-0.29421997,-1.4502716,13.932114,0.04649353,0.22201538,0.2934723,15.0001525,-22.799683,-266.32537,14.010483703766598,0.37091571570330545,267.72320005028985,44.43493749999706,26.047654817693978
12:15:56:22,0.09843445,-1.5484467,12.845154,0.32666016,0.41801453,0.41703796,13.650513,-22.799683,-265.35034,12.938522242026085,0.6748063926070262,266.6776424602919,44.434937499997055,26.04765495763543
12:15:56:23,0.5269928,-1.2659302,11.221878,0.562088,0.48832703,0.47988892,14.324951500000001,-22.9499815,-265.49987,11.305345927012047,0.885832706277764,266.87552812829676,44.43493749999705,26.047655097576886
12:15:56:24,0.7400818,-1.0432587,9.53157,0.6813965,0.4318695,0.4937439,14.99939,-23.10028,-265.6494,9.61701286526731,0.9458305842114169,267.07341379630157,44.43493749999704,26.047655237518338
12:15:56:25,0.8909149,-0.9450989,8.142944,0.67074585,0.26675415,0.4777527,15.074921,-23.699951,-266.99981,8.245876440801137,0.8656242915906041,268.4735888089126,44.434937499997034,26.047655377459794
12:15:56:26,0.8669739,-0.8756714,7.240326,0.5429077,0.043045044,0.43515015,15.150452,-24.299622,-268.35022,7.344437672847062,0.6971063760842203,269.8737638215237,44.43493749999703,26.047655517401246
12:15:56:27,0.7975464,-0.84454346,6.850067,0.34584045,-0.18385315,0.37869263,15.375519,-25.2746585,-267.97486,6.947859513581916,0.5448079529865931,269.6049155818844,44.43493749999702,26.047655657342702
12:15:56:28,0.65148926,-0.97862244,7.161316,0.009216309,-0.38731384,0.31158447,15.600586,-26.249695,-267.5995,7.25717486270125,0.4971738458047748,269.33606734224514,44.43493749999701,26.047655797284154
12:15:56:29,0.40489197,-1.2156525,8.035202,-0.081329346,-0.41288757,0.30519104,16.049957499999998,-26.100158999999998,-267.675025,8.1367204504598,0.5198386084907259,269.4233858067992,44.434937499997,26.04765593722561
12:15:56:30,0.39291382,-1.4550629,8.9066925,-0.20916748,-0.39797974,0.3169098,16.499329,-25.950623,-267.75055,9.033313932464633,0.5500642957655568,269.5107042713533,44.43493749999699,26.047656077167062
12:15:56:31,0.3570099,-1.5197144,9.723114,-0.24858093,-0.3755951,0.3350067,15.074921,-26.100158999999998,-267.675025,9.847635948960612,0.5613320291490277,269.3704287365223,44.434937499996984,26.047656217108518
12:15:56:32,0.35221863,-1.5412598,10.319275,-0.19851685,-0.325531,0.36590576,13.650513,-26.249695,-267.5995,10.439682766254926,0.5284566177995126,269.23015320169134,44.43493749999698,26.04765635704997
12:15:56:33,0.53178406,-1.4957733,10.580231,-0.015289307,-0.26161194,0.42236328,14.025116,-26.249695,-267.5995,10.698664405654753,0.4970566470247252,269.2496661340726,44.43493749999697,26.047656496991426
12:15:56:34,0.75683594,-1.4095764,10.51799,0.13598633,-0.22433472,0.43301392,14.399719,-26.249695,-267.5995,10.638976450186014,0.5062799654915388,269.26917906645383,44.43493749999696,26.047656636932878
12:15:56:35,1.0058289,-1.2731018,10.139709,0.20309448,-0.20303345,0.43089294,14.550018,-26.100158999999998,-267.29966,10.268698971823035,0.5178210843208457,268.9648151286053,44.434937499996956,26.047656776874334
12:15:56:36,1.259613,-1.1438141,9.584244,0.31175232,-0.18171692,0.40638733,14.700317,-25.950623,-266.99982,9.734098245685823,0.5434714436142875,268.6604511907568,44.43493749999695,26.047656916815786
12:15:56:37,1.5253754,-1.0312958,9.043152,0.3756714,-0.17427063,0.36164856,14.700317,-26.550293,-266.32461,9.228701925684174,0.5498080885260151,268.04898225573055,44.43493749999694,26.04765705675724
12:15:56:38,1.7480316,-1.0049591,8.478134,0.4033661,-0.14762878,0.2987976,14.700317,-27.149963,-265.6494,8.714603455650026,0.5232384476309615,267.4375133207043,44.434937499996934,26.047657196698694
12:15:56:39,1.7815552,-0.93551636,7.75029,0.38311768,-0.07626343,0.16351318,14.700317,-26.9248965,-265.2748,8.0072545154113,0.4234758877641792,267.04270068576847,44.43493749999693,26.04765733664015
12:15:56:40,1.6211395,-0.878067,7.4246826,0.33091736,-0.020874023,0.06869507,14.700317,-26.69983,-264.9002,7.650163831297471,0.3386163561139347,266.64788805083265,44.43493749999691,26.047657476581602
12:15:56:41,1.3912964,-0.9858093,7.2427216,0.2638092,0.039855957,-0.006942749,14.099884,-27.674866,-266.175075,7.440735301280783,0.26689322411163396,267.9832621368206,44.434937499996906,26.047657616523058
12:15:56:42,1.2045593,-1.0504456,7.0607605,0.19563293,0.10803223,-0.060195923,13.499451,-28.649902,-267.44995,7.239387950934534,0.23144492901115749,269.31863622280855,44.4349374999969,26.04765775646451
12:15:56:43,1.1016083,-1.0791779,7.0128784,0.16047668,0.13146973,-0.08363342,13.874817,-29.025268500000003,-266.92505,7.180433777959648,0.22367745454334845,268.8574039527821,44.43493749999689,26.047657896405966
12:15:56:44,0.9459839,-1.0552368,6.9338684,0.073135376,0.13998413,-0.1209259,14.250183,-29.400635,-266.40015,7.077212815201476,0.19891559306733167,268.39617168275555,44.434937499996884,26.047658036347418
12:15:56:45,0.9244385,-0.961853,7.1277924,0.051818848,0.11228943,-0.13050842,14.324950999999999,-29.1000365,-266.625215,7.251563433590649,0.17979587533830804,268.59100927158784,44.43493749999688,26.047658176288873
12:15:56:46,0.95077515,-0.7703247,7.2834167,0.024124146,-0.0059509277,-0.16246033,14.399719,-28.799438,-266.85028,7.385494726497779,0.1643494654217921,268.7858468604201,44.43493749999687,26.04765831623033
12:15:56:47,0.99386597,-0.65301514,7.4366455,0.022003174,-0.04750061,-0.17843628,15.449524,-28.72467,-266.92505,7.5311283770802575,0.18595685961180558,268.9123910009787,44.43493749999686,26.04765845617178
12:15:56:48,1.0776672,-0.4351349,7.537201,0.018798828,-0.13485718,-0.22212219,16.499329,-28.649902,-266.99982,7.626277459518166,0.26053430143096723,269.0389351415372,44.434937499996856,26.047658596113237
12:15:56:49,1.132721,-0.24360657,7.6904297,-0.009963989,-0.18171692,-0.2743225,15.374756,-29.3998715,-266.99982,7.777217368405634,0.3292007808273372,269.05662276208665,44.43493749999685,26.04765873605469
12:15:56:50,1.0896301,-0.07600403,7.8508453,-0.05470276,-0.15934753,-0.33184814,14.250183,-30.149841,-266.99982,7.926464678022247,0.3721655751008926,269.0743103826361,44.43493749999684,26.047658875996145
12:15:56:51,0.8957062,-0.016143799,8.099838,-0.10797119,-0.091171265,-0.38723755,14.55001825,-30.7502745,-266.92505,8.149228542948627,0.41221705151742427,269.0849691619946,44.43493749999683,26.047659015937597
12:15:56:52,0.5988159,0.08918762,8.38475,-0.15270996,0.01109314,-0.44262695,14.8498535,-31.350708,-266.85028,8.40657882114681,0.46836097884491157,269.0956279413531,44.43493749999682,26.047659155879053
12:15:56:53,0.2636261,0.12271118,8.73909,-0.1356659,0.052627563,-0.43836975,14.025115750000001,-31.275177,-266.625215,8.743926508291237,0.46189060882983046,268.82058467446694,44.43493749999681,26.047659295820505
12:15:56:54,0.09603882,0.09158325,8.997665,-0.079208374,0.05795288,-0.41067505,13.200378,-31.199646,-266.40015,8.998643586610848,0.4222398601559554,268.5455414075808,44.434937499996806,26.04765943576196
12:15:56:55,0.24208069,0.165802,8.9904785,-0.007827759,0.02067566,-0.38510132,13.4254455,-31.124878000000002,-266.999825,8.995265255824151,0.38573538001217894,269.1430215343806,44.4349374999968,26.047659575703413
12:15:56:56,0.66825867,0.6039429,8.662476,0.033721924,-0.072006226,-0.39363098,13.650513,-31.05011,-267.5995,8.709179474960116,0.401581141435682,269.74050166118036,44.43493749999679,26.04765971564487
12:15:56:57,0.8813324,0.9487152,8.588257,0.013473511,-0.18598938,-0.44155884,13.2003785,-31.500244000000002,-267.675025,8.685330484676436,0.47932013743801455,269.8459453108418,44.434937499996785,26.04765985558632
12:15:56:58,0.96273804,1.0851898,8.688812,-0.071746826,-0.31169128,-0.51719666,12.750244,-31.950378,-267.75055,8.809083687139719,0.6081047986854472,269.9513889605032,44.43493749999678,26.047659995527777
12:15:56:59,0.9531555,1.2096863,9.05513,-0.1910553,-0.40330505,-0.6077423,12.975311000000001,-33.074951,-267.60024999999996,9.185163344681897,0.7539945584836023,269.9510007182557,44.43493749999677,26.04766013546923
12:15:56:60,0.6634674,1.0492706,10.403061,-0.24537659,-0.42460632,-0.6535492,13.200378,-34.199524,-267.44995,10.476871477335594,0.8170843008677933,269.9506124760082,44.434937499996764,26.047660275410685
12:15:56:61,0.5461426,0.87210083,10.980072,-0.3391266,-0.3212738,-0.7270508,13.7252805,-33.674622,-267.60024999999996,11.02818265728336,0.8641912815891167,270.0607687024328,44.43493749999676,26.047660415352137
12:15:56:62,0.21095276,0.5417023,11.937744,-0.31889343,-0.15190125,-0.7227936,14.250183,-33.14972,-267.75055,11.95188998687291,0.804485921349583,270.1709249288575,44.43493749999674,26.047660555293593
12:15:56:63,-0.14099121,0.14904785,12.809235,-0.24005127,0.045181274,-0.66633606,14.475249999999999,-33.525085000000004,-267.75055,12.810877997550046,0.7096969103816075,270.2295493267527,44.434937499996735,26.047660695235045
12:15:56:64,0.024215698,0.20890808,12.83078,-0.11009216,0.21774292,-0.5928345,14.700317,-33.90045,-267.75055,12.832503434416799,0.6410811238009134,270.28817372464795,44.43493749999673,26.0476608351765
12:15:56:65,0.34503174,0.44354248,12.569824,0.03265381,0.3381195,-0.55448914,14.77508525,-34.125518,-267.675025,12.582378639357028,0.6502686167774866,270.245875625246,44.43493749999672,26.047660975117953
12:15:56:66,0.5006561,0.6901398,11.988022,0.13278198,0.39031982,-0.555542,14.8498535,-34.350586,-267.5995,12.018303580226924,0.6918146643874736,270.2035775258441,44.434937499996714,26.04766111505941
12:15:56:67,0.5293884,0.82901,11.705505,0.1807251,0.375412,-0.5715332,14.8498535,-34.950256499999995,-267.97486,11.746759423908347,0.7072806587319138,270.6526611621113,44.43493749999671,26.04766125500086
12:15:56:68,0.5198059,0.85295105,11.60495,0.19030762,0.3381195,-0.58218384,14.8498535,-35.549927,-268.35022,11.64785766438923,0.6996283370958183,271.10174479837855,44.4349374999967,26.047661394942317
12:15:56:69,0.4575653,0.6326752,11.9353485,0.25315857,0.19218445,-0.5992279,14.92462175,-35.774993499999994,-268.27545,11.960860660040789,0.6783053888365163,271.0615645722039,44.43493749999669,26.04766153488377
12:15:56:70,0.55332947,0.23764038,12.380676,0.34051514,0.12187195,-0.5736542,14.99939,-36.00006,-268.20068,12.395313012165245,0.6781463514195606,271.0213843460292,44.434937499996686,26.047661674825225
12:15:56:71,0.94358826,-0.15022278,12.481232,0.46194458,0.09950256,-0.5321045,14.1746525,-36.524963,-267.52548,12.517750513804977,0.7116380775072255,270.38098610129555,44.43493749999668,26.047661814766677
12:15:56:72,1.2931366,-0.3082428,12.15802,0.5865936,0.117614746,-0.506546,13.349915,-37.049866,-266.85028,12.230481029395834,0.7839095165601734,269.7405878565619,44.43493749999667,26.047661954708133
12:15:56:73,1.417633,-0.3297882,11.722275,0.66116333,0.14212036,-0.5012207,13.874817,-38.1752015,-267.825315,11.81228914119415,0.8417584782891756,270.89006480359325,44.434937499996664,26.047662094649585
12:15:56:74,1.5708618,-0.344162,11.164413,0.67393494,0.19218445,-0.506546,14.399719,-39.300537,-268.80035,11.27963527386911,0.8647034267831983,272.0395417506246,44.43493749999665,26.04766223459104
12:15:56:75,1.6833954,-0.3585205,10.905853,0.6174774,0.24118042,-0.53744507,15.899657999999999,-39.300537,-268.199925,11.040832698636024,0.8534011587579673,271.53431860405317,44.43493749999664,26.047662374532493
12:15:56:76,2.0568848,-0.40161133,10.2426605,0.49710083,0.2859192,-0.5939026,17.399597,-39.300537,-267.5995,10.454863024407143,0.8255781746158801,271.0290954574818,44.434937499996636,26.04766251447395
12:15:56:77,2.2843323,-0.34654236,9.785355,0.32453918,0.33918762,-0.69189453,17.17453,-39.5256035,-267.29966,10.054423809454356,0.8361171936757776,270.7516579661584,44.43493749999663,26.0476626544154
12:15:56:78,2.3370056,-0.29388428,9.502838,0.10083008,0.3658142,-0.81973267,16.949463,-39.75067,-266.99982,9.790398010229538,0.9032986129845298,270.474220474835,44.43493749999662,26.047662794356857
12:15:56:79,2.202942,-0.40400696,9.61058,-0.15696716,0.36901855,-0.9603424,16.424560500000002,-40.800475,-267.15011000000004,9.868101287253413,1.0407069255080068,270.7488707056102,44.434937499996614,26.04766293429831
12:15:56:80,2.1071625,-0.6937103,10.178009,-0.39344788,0.34025574,-1.0924377,15.899658,-41.85028,-267.3004,10.416968608276274,1.2099567476818054,271.02352093638547,44.43493749999661,26.047663074239765
12:15:56:81,1.7360687,-1.1007233,10.965698,-0.56495667,0.31681824,-1.2021637,17.250061,-41.474914999999996,-267.3004,11.156704663182877,1.3655575409963054,271.0520258060046,44.4349374999966,26.047663214181217
12:15:56:82,1.3506012,-1.5747681,11.909012,-0.6384735,0.30297852,-1.2714081,18.600464,-41.09955,-267.3004,12.088365687154036,1.454621239542875,271.0805306756238,44.43493749999659,26.047663354122673
12:15:56:83,0.883728,-2.0751648,12.325607,-0.617157,0.29125977,-1.2937775,19.200134499999997,-40.950013,-267.44995,12.53027821094137,1.4627286952048568,271.24785864057685,44.434937499996586,26.047663494064125
12:15:56:84,0.7041626,-2.3169708,12.526718,-0.535141,0.26568604,-1.2245331,19.799805,-40.800476,-267.5995,12.758638740352179,1.362514687894223,271.41518660552987,44.43493749999658,26.04766363400558
12:15:56:85,0.71614075,-2.8341217,12.636856,-0.4105072,0.2582245,-1.1318512,19.200134499999997,-41.325378,-268.72483,12.970552530596276,1.2313745135390493,272.56201600177684,44.434937499996565,26.047663773947033
12:15:56:86,0.8981018,-2.7982178,12.47644,-0.25390625,0.24224854,-1.0295868,18.600464,-41.85028,-269.85016,12.81788456700247,1.0877507608158379,273.7088453980238,44.43493749999656,26.04766391388849
12:15:56:87,1.2404633,-2.6665344,12.0694275,-0.104766846,0.20497131,-0.93904114,19.950104,-42.375182499999994,-269.10019,12.42256958454194,0.9668441407778213,273.14999944448186,44.43493749999655,26.04766405382994
12:15:56:88,1.6403046,-2.4438782,11.284134,0.014541626,0.13572693,-0.8825836,21.299744,-42.900085,-268.35022,11.661681695500542,0.8930773031506897,272.59115349093986,44.43493749999654,26.047664193771396
12:15:56:89,1.9443665,-2.2930298,10.798111,0.06674194,0.03239441,-0.8570099,21.524811,-42.0753475,-269.02542,11.208824555604897,0.8602150039683228,273.1468595735562,44.434937499996536,26.04766433371285
12:15:56:90,2.1694183,-2.2068481,10.395889,0.07846069,-0.09223938,-0.8527527,21.749878,-41.25061,-269.70062,10.846707444988526,0.8613079301012795,273.70256565617245,44.43493749999653,26.047664473654304
12:15:56:91,2.3394012,-2.1302338,10.146881,0.05821228,-0.20089722,-0.86128235,21.900177,-42.300415,-268.65006,10.628729371161207,0.8863157727176298,272.8429714216589,44.43493749999653,26.04766451708441
12:15:56:92,2.3561707,-2.1254425,10.151672,0.02305603,-0.278656,-0.8751221,22.050476,-43.35022,-267.5995,10.63604675544108,0.9187053046346096,271.9833771871453,44.43493749999652,26.047664560514516
12:15:56:93,2.2939148,-2.1206512,10.237869,-0.005706787,-0.3212738,-0.86979675,21.825409,-44.10019,-267.07459,10.703885662827377,0.9272517502247519,271.57085691843463,44.43493749999652,26.047664603944625
12:15:56:94,2.2460327,-1.9362946,10.599396,0.0017547607,-0.32980347,-0.8527527,21.600342,-44.85016,-266.54968,11.00641155110395,0.914308796505013,271.1583366497239,44.43493749999652,26.04766464737473
12:15:56:95,2.281952,-1.8788452,10.656845,0.02305603,-0.31808472,-0.8399658,21.1502075,-45.3002935,-266.62521000000004,11.059191180637582,0.8984720445214082,271.27264579286265,44.434937499996515,26.047664690804837
12:15:56:96,2.231659,-1.7136383,10.388702,0.13066101,-0.21582031,-0.7994995,20.700073,-45.750427,-266.70074,10.762991561843386,0.8383615903910235,271.3869549360014,44.434937499996515,26.047664734234942
12:15:56:97,2.2843323,-1.5077362,10.022385,0.2169342,-0.1486969,-0.7600708,21.1502075,-45.674896000000004,-266.77551,10.389400540639423,0.8042877819610901,271.48278927032794,44.434937499996515,26.047664777665048
12:15:56:98,2.3705292,-1.3545074,9.7686,0.29789734,-0.11567688,-0.7515564,21.600342,-45.599365,-266.85028,10.1429603639523,0.8166767953888306,271.57862360465447,44.43493749999651,26.047664821095157
12:15:56:99,2.5572815,-1.0911407,9.100616,0.33091736,-0.10928345,-0.7568817,21.600342,-45.599365,-266.85028,9.515854574177494,0.8332581109045156,271.57862360465447,44.43493749999651,26.047664864525263
12:15:57:00,2.698532,-0.67933655,8.231522,0.37886047,-0.09437561,-0.7984314,21.600342,-45.599365,-266.85028,8.689161498077585,0.8887827136018416,271.57862360465447,44.43493749999651,26.04766490795537
12:15:57:01,2.7464142,-0.56921387,7.836487,0.3618164,-0.067733765,-0.8495636,21.0754395,-45.375061,-266.69998,8.32330006000811,0.925881893480478,271.35262481211964,44.4349374999965,26.047664951385475
12:15:57:02,2.674591,-0.3944397,6.996109,0.28405762,-0.05496216,-0.9262543,20.550537,-45.150757,-266.54968,7.500304049443468,0.9703899210010479,271.1266260195849,44.4349374999965,26.04766499481558
12:15:57:03,2.2388458,-0.3369751,6.7088165,0.17219543,-0.058151245,-1.0029602,21.67511,-45.375061,-266.92504,7.080550936535229,1.0192948524308236,271.6227039696447,44.4349374999965,26.04766503824569
12:15:57:04,1.716919,-0.40161133,6.663315,0.055023193,-0.07093811,-1.0519562,22.799683,-45.599365,-267.3004,6.892667792819437,1.0557800973388007,272.11878191970453,44.434937499996494,26.047665081675795
12:15:57:05,1.2955322,-0.5572357,6.658539,-0.060028076,-0.09437561,-1.0594177,23.324585,-46.4996335,-266.699975,6.806251311927318,1.0653055846771968,271.7285835294766,44.434937499996494,26.0476651251059
12:15:57:06,1.0513306,-0.68891907,6.790207,-0.16654968,-0.12420654,-1.0381165,23.849487,-47.399902,-266.09955,6.905564178135992,1.058702946089754,271.33838513924877,44.434937499996494,26.047665168536007
12:15:57:07,0.83584595,-0.74398804,7.1876526,-0.25283813,-0.19238281,-0.9933777,23.400116,-46.800231,-265.874475,7.274235805504328,1.0429465568391714,270.97517189124255,44.43493749999649,26.047665211966113
12:15:57:08,0.7903595,-0.71525574,7.75029,-0.29013062,-0.28504944,-0.9422455,22.950745,-46.20056,-265.6494,7.823250858622852,1.0262823890996806,270.6119586432363,44.43493749999649,26.04766525539622
12:15:57:09,0.85739136,-0.7128601,7.913101,-0.2890625,-0.32980347,-0.9145355,23.000590000000003,-46.50014133333333,-265.34982333333335,7.991273797247574,1.0142497909738708,270.3739441680272,44.43493749999649,26.047665298826328
12:15:57:10,1.1686401,-0.641037,8.435028,-0.26242065,-0.49064636,-0.86447144,23.050435,-46.79972266666667,-265.0502466666667,8.53969235274205,1.0280609508698137,270.1359296928182,44.43493749999648,26.047665342256433
12:15:57:11,1.2021637,-0.6338501,8.566711,-0.2464447,-0.6014404,-0.8538208,23.10028,-47.099304,-264.75067,8.673840030135944,1.0730682659658193,269.8979152176091,44.43493749999648,26.04766538568654
12:15:57:12,1.3075104,-0.7415924,8.705582,-0.24325562,-0.6642914,-0.84317017,23.775482,-47.549438499999994,-265.725705,8.834404376785676,1.1006326800315231,270.992222485091,44.43493749999648,26.047665429116645
12:15:57:13,1.3649597,-1.0743866,8.657684,-0.2688141,-0.70796204,-0.8208008,24.450684,-47.999573,-266.70074,8.830227278657082,1.1167744730787912,272.08652975257297,44.43493749999647,26.04766547254675
12:15:57:14,1.4822845,-0.957077,8.707977,-0.33061218,-0.77827454,-0.80055237,23.10028,-47.399902,-266.54968,8.884932591494335,1.1644310929759565,271.71511837546035,44.43493749999647,26.04766551597686
12:15:57:15,1.606781,-0.6985016,9.191605,-0.42008972,-0.89971924,-0.79629517,23.10028,-47.399902,-266.2999466666667,9.357096352137694,1.2728142368158777,271.4701455970966,44.43493749999647,26.047665559406965
12:15:57:16,1.7049408,-0.66737366,9.56749,-0.5170288,-1.0477905,-0.7994995,23.10028,-47.399902,-266.0502133333333,9.741102382875688,1.4157623961738568,271.2251728187328,44.434937499996465,26.04766560283707
12:15:57:17,2.0999908,-0.7966614,11.059082,-0.57455444,-1.1702881,-0.81440735,23.10028,-47.399902,-265.80048,11.284853806277626,1.5371878132678993,270.980200040369,44.434937499996465,26.047665646267177
12:15:57:18,2.2484283,-0.8756714,12.129288,-0.5670929,-1.2043762,-0.84742737,22.050476,-47.399902,-265.35034,12.366966386627032,1.578052450263288,270.45106237460374,44.434937499996465,26.047665689697283
12:15:57:19,2.4160156,-1.0887451,13.08696,-0.47654724,-1.1212921,-0.86872864,22.450256333333332,-47.24985733333333,-265.2002933333333,13.352566019826202,1.4963564733813521,270.31117101553957,44.43493749999646,26.047665733127392
12:15:57:20,2.595581,-1.2707062,13.505951,-0.31782532,-0.9295349,-0.8825836,22.850036666666668,-47.099812666666665,-265.0502466666667,13.811677935308238,1.3206066315675051,270.17127965647546,44.43493749999646,26.047665776557498
12:15:57:21,2.65065,-1.3018341,13.510742,-0.114349365,-0.65896606,-0.8804474,23.249817,-46.949768,-264.9002,13.829709571678894,1.1056670699964737,270.0313882974113,44.43493749999646,26.047665819987603
12:15:57:22,2.8493652,-1.1773376,12.620102,0.06674194,-0.39370728,-0.8964386,23.849487,-47.099304,-265.35034,12.991227053583074,0.9813572603542107,270.55118814295236,44.43493749999645,26.04766586341771
12:15:57:23,2.8972473,-0.9187622,11.540314,0.17433167,-0.21687317,-0.9422455,22.049713,-46.799469,-264.375305,11.93385994203477,0.9824724348810443,269.39492361396844,44.43493749999645,26.047665906847815
12:15:57:24,2.8613434,-0.7056732,10.544327,0.18284607,-0.13165283,-1.0104218,20.249939,-46.499634,-263.40027,10.948428773155113,1.035237831069119,268.23865908498453,44.43493749999645,26.047665950277924
12:15:57:25,2.7655792,-0.68652344,9.861969,0.13171387,-0.067733765,-1.0722046,21.375274500000003,-47.2496035,-264.29977499999995,10.265387245598827,1.0823858418940135,269.34219611012645,44.434937499996444,26.04766599370803
12:15:57:26,2.5644531,-0.70806885,9.536362,0.051818848,-0.048568726,-1.1265259,22.50061,-47.999573,-265.19928,9.90050409794794,1.1287624717025813,270.4457331352684,44.434937499996444,26.047666037138136
12:15:57:27,2.3585663,-0.7296295,9.545944,-0.025939941,-0.07093811,-1.1702118,22.50061,-47.6249695,-264.074705,9.860032507547931,1.1726469003279272,269.276629480619,44.434937499996444,26.04766608056824
12:15:57:28,2.0544891,-0.7296295,9.723114,-0.06428528,-0.095443726,-1.1989594,22.50061,-47.250366,-262.95013,9.964548686532927,1.204469071792963,268.10752582596956,44.43493749999644,26.047666123998347
12:15:57:29,1.764801,-0.79426575,9.921829,-0.06428528,-0.1210022,-1.2138824,23.1002805,-47.6249695,-263.1752,10.10881156993566,1.2215910161176196,268.4462375178316,44.43493749999644,26.047666167428456
12:15:57:30,1.4535522,-0.9115753,9.893097,-0.038726807,-0.13272095,-1.2128143,23.699951,-47.999573,-263.40027,10.040774461021615,1.220669137167729,268.7849492096937,44.43493749999644,26.047666210858562
12:15:57:31,1.1183624,-0.9953766,9.780579,-0.012084961,-0.12846375,-1.190445,23.4001155,-47.6997375,-263.850405,9.89450527357494,1.1974173371767398,269.1470191385838,44.43493749999643,26.047666254288668
12:15:57:32,0.83584595,-1.0001678,9.54834,0.0049591064,-0.107162476,-1.1467743,23.10028,-47.399902,-264.30054,9.63689632796204,1.1517810921087508,269.50908906747395,44.43493749999643,26.047666297718774
12:15:57:33,0.52459717,-0.97143555,9.323273,-0.00036621094,-0.07519531,-1.0817871,23.699951,-48.374939,-264.15024,9.388413532173837,1.0843974356677806,269.5894992752162,44.43493749999643,26.04766634114888
12:15:57:34,0.41207886,-0.8469391,9.079071,-0.022750854,-0.051757812,-1.0072174,24.299622,-49.349976,-263.99994,9.127795191009094,1.0088029358222133,269.66990948295853,44.43493749999642,26.047666384578985
12:15:57:35,0.27799988,-0.7559509,9.002457,-0.055770874,-0.050689697,-0.9262543,24.399821333333332,-49.349976,-264.2501833333333,9.038416771389766,0.9293152662240978,269.9239652912585,44.43493749999642,26.047666428009094
