,ax,ay,az,gx,gy,gz,mx,my,mz,a_total,g_total,m_total,lat,long
14:25:33:50,0.4695282,-0.8900299,12.854721,-0.04084778,0.26887512,-0.3488922,53.55072,-50.99945,-263.40027,12.894047539129451,0.44236652055369513,273.5842205773092,44.4349375,26.0476015
14:25:33:51,1.7480316,-0.47105408,11.396652,0.3852539,0.34132385,-0.21147156,53.250122,-50.699615,-262.950135,11.539548657984298,0.5564555316760416,273.03641284464686,44.43493749999999,26.047601574086652
14:25:33:52,1.5301666,-0.21247864,9.253845,0.49710083,0.32107544,-0.24023438,52.949524,-50.39978,-262.5,9.38190834959694,0.6386792862555251,272.48860511198444,44.43493749999999,26.047601648173302
14:25:33:53,0.8981018,-0.13586426,8.178848,0.468338,0.41696167,-0.2583313,53.099823,-50.6248475,-262.124635,8.229131214618747,0.6781832916349966,272.1983110423688,44.43493749999998,26.047601722259955
14:25:33:54,0.79992676,-0.12628174,8.035202,0.29896545,0.6576996,-0.26260376,53.250122,-50.849915,-261.74927,8.075908684477898,0.7687066013115799,271.90801697275316,44.43493749999998,26.04760179634661
14:25:33:55,0.8669739,-0.32499695,8.851624,0.033721924,0.7525177,-0.27218628,54.299926,-51.300049,-261.8248,8.899916527595442,0.8009403398454782,272.27482210788054,44.434937499999975,26.047601870433258
14:25:33:56,0.5700836,-0.44232178,9.72551,-0.015289307,0.7386627,-0.29455566,55.34973,-51.750183,-261.90033,9.752240185113948,0.7953737386398081,272.6416272430079,44.434937499999975,26.04760194451991
14:25:33:57,0.10800171,-0.73680115,10.098999,0.019866943,0.74931335,-0.29776,54.074859000000004,-50.7751465,-261.90033,10.126416992500616,0.806552050094963,272.2064940139952,44.43493749999997,26.047602018606565
14:25:33:58,-0.43547058,-1.1342468,9.775787,0.042236328,0.77275085,-0.2540741,52.799988,-49.80011,-261.90033,9.85099801536498,0.8145436954942663,271.7713607849825,44.43493749999996,26.047602092693214
14:25:33:59,-0.8185425,-1.2898712,9.39032,-0.0035705566,0.8334656,-0.18057251,53.700256499999995,-50.9246825,-261.15036499999997,9.51377365924246,0.8528095254073409,271.43890849541276,44.43493749999996,26.047602166779868
14:25:33:60,-0.87361145,-1.2180328,9.5746765,-0.04937744,0.8601074,-0.10493469,54.600525,-52.049255,-260.4004,9.691296659740594,0.8678906384338465,271.10645620584296,44.434937499999954,26.04760224086652
14:25:33:61,-0.7922058,-0.9738312,10.048721,-0.03765869,0.70243835,-0.076171875,55.8753975,-51.9744875,-260.70023000000003,10.126832227873042,0.7075591615011809,271.64213802687055,44.434937499999954,26.047602314953174
14:25:33:62,-1.0388184,-0.7008972,10.575455,-0.008895874,0.56822205,-0.080444336,57.15027,-51.89972,-261.00006,10.649443600966737,0.573957076683359,272.17781984789815,44.43493749999995,26.047602389039824
14:25:33:63,-1.148941,-0.87327576,10.067871,0.17752075,0.12187195,-0.08149719,57.15027,-51.525116499999996,-261.75003000000004,10.170776885131518,0.2302350556610811,272.82659523896757,44.43493749999995,26.047602463126477
14:25:33:64,-1.3285065,-1.1366425,8.904297,0.21907043,0.02281189,-0.076171875,57.15027,-51.150513,-262.5,9.074325912019994,0.2330544789674136,273.47537063003693,44.43493749999994,26.04760253721313
14:25:33:65,-1.3404846,-1.2707062,8.193222,0.14770508,-0.05708313,-0.010131836,56.925202,-50.62561049999999,-261.75003000000004,8.398838011941868,0.15867554471037493,272.6108039383529,44.43493749999993,26.04760261129978
14:25:33:66,-0.98854065,-1.0456543,7.996887,0.02305603,-0.07519531,0.038864136,56.700134,-50.100708,-261.00006,8.125318899746638,0.08772876513654741,271.74623724666884,44.43493749999993,26.047602685386433
14:25:33:67,-0.6725006,-0.9067993,8.032806,-0.03552246,-0.11781311,0.052719116,56.175231999999994,-51.375579,-261.15036,8.111751614855873,0.13386963525813148,272.0229111596683,44.434937499999926,26.047602759473087
14:25:33:68,0.052947998,-0.45188904,8.38475,-0.14950562,-0.4427185,0.03353882,55.65033,-52.65045,-261.30066,8.39708519412923,0.4684831406793918,272.2995850726677,44.434937499999926,26.047602833559736
14:25:33:69,0.28518677,-0.3297882,8.57869,-0.1633606,-0.60783386,0.013305664,55.65033,-52.1255485,-261.67526499999997,8.58976215425912,0.6295440633421463,272.55884682429564,44.43493749999992,26.04760290764639
14:25:33:70,0.29475403,-0.3369751,8.526016,-0.20916748,-1.0211487,-0.045288086,55.65033,-51.600647,-262.04987,8.537762059724859,1.0433344204687123,272.81810857592353,44.43493749999992,26.047602981733043
14:25:33:71,0.43362427,-0.39683533,8.997665,-0.25283813,-1.1425934,-0.06340027,55.0498965,-51.225281,-262.04987,9.016844444643272,1.1719498248395832,272.6263368217068,44.43493749999991,26.047603055819692
14:25:33:72,0.84542847,-0.4494934,9.335251,-0.25497437,-1.1702881,-0.099609375,54.449463,-50.849915,-262.04987,9.38422638513858,1.201876946257976,272.4345650674901,44.434937499999904,26.047603129906346
14:25:33:73,0.88612366,-0.4494934,9.696777,-0.2336731,-1.0765533,-0.15394592,54.7500615,-49.949646,-261.9751,9.747550648505724,1.1123261534681033,272.257900920895,44.434937499999904,26.047603203993
14:25:33:74,0.90527344,-0.45428467,9.967316,-0.17933655,-0.8368683,-0.18803406,55.05066,-49.049377,-261.90033,10.01864675524706,0.8762801820370447,272.0812367742999,44.4349374999999,26.04760327807965
14:25:33:75,0.95555115,-0.7679291,10.161255,-0.10369873,-0.5630951,-0.2071991,54.150391,-50.099945,-262.57552999999996,10.234935089091584,0.6089014577814976,272.74549880360667,44.4349374999999,26.047603352166302
14:25:33:76,0.7640228,-0.957077,10.252228,-0.044052124,-0.33512878,-0.21040344,53.250122,-51.150513,-263.25073,10.325110468505063,0.3981475811518053,273.40976083291343,44.43493749999989,26.047603426252955
14:25:33:77,0.5748749,-1.0001678,10.276169,-0.018478394,-0.27120972,-0.19654846,53.624725999999995,-50.7751465,-262.875365,10.340718838425492,0.33545112966819657,273.0521534589504,44.43493749999989,26.047603500339605
14:25:33:78,0.6251526,-0.92355347,10.094208,0.02519226,-0.22114563,-0.12837219,53.99933,-50.39978,-262.5,10.155629076157705,0.2569425204153657,272.69454608498734,44.43493749999988,26.047603574426258
14:25:33:79,0.70895386,-0.9163666,9.981689,-0.0025024414,-0.24777222,-0.08363342,53.99933,-51.0002135,-262.6503,10.048704325131943,0.2615184203026342,272.9513631822361,44.434937499999876,26.04760364851291
14:25:33:80,0.9483795,-0.83496094,10.252228,-0.06321716,-0.3159485,-0.07511902,53.99933,-51.600647,-262.8006,10.329799727551835,0.33085152430731823,273.20818027948485,44.434937499999876,26.04760372259956
14:25:33:81,0.84542847,-0.9187622,11.080627,-0.32740784,0.30403137,-0.0463562,53.174592000000004,-51.675415,-262.350465,11.150747418499101,0.4491991372609508,272.6283264989881,44.43493749999987,26.047603796686214
14:25:33:82,2.3944702,-0.68652344,11.276947,-0.39665222,0.27101135,-0.014389038,52.349854,-51.750183,-261.90033,11.548780698115557,0.4806112564997998,272.0484727184913,44.43493749999987,26.047603870772868
14:25:33:83,1.4391785,-0.05445862,10.427002,-0.28799438,-0.48213196,-0.04208374,53.099823,-51.0002135,-262.42523,10.525995022047015,0.5631722924091823,272.5596328572964,44.43493749999986,26.04760394485952
14:25:33:84,1.5421295,-0.5045624,9.888306,-0.17614746,-0.4938507,-0.036758423,53.849792,-50.250244,-262.95013,10.020546001086966,0.5256116657917598,273.07079299610143,44.43493749999986,26.04760401894617
14:25:33:85,2.0736542,-1.0073547,10.067871,-0.14311218,0.007888794,-0.09854126,53.475189,-49.275207,-262.95013,10.32844769098584,0.17393593377308336,272.8212628989629,44.434937499999855,26.047604093032824
14:25:33:86,2.3705292,-1.3449249,10.525162,-0.118621826,0.3008423,-0.14541626,53.100586,-48.30017,-262.95013,10.872316533330725,0.3545745559755408,272.57173280182445,44.43493749999985,26.047604167119477
14:25:33:87,2.1502686,-1.3832397,10.67601,-0.11968994,0.36688232,-0.15713501,52.799988,-48.0751035,-263.249965,10.977895820233586,0.41667700900515986,272.763253787352,44.43493749999985,26.047604241206127
14:25:33:88,1.1925812,-1.5556183,11.561859,-0.13778687,0.42440796,-0.115600586,52.49939,-47.850037,-263.5498,11.726840228713332,0.46094558631068583,272.95477477287966,44.43493749999984,26.04760431529278
14:25:33:89,0.8549957,-1.818985,12.708679,-0.07281494,0.72268677,0.019699097,53.3996585,-48.6747735,-263.475035,12.866633048404095,0.7266128525169727,273.20557193384604,44.43493749999984,26.047604389379433
14:25:33:90,1.9060516,-1.3688812,10.568268,0.031585693,0.42121887,0.0793457,54.299927,-49.49951,-263.40027,10.825671201426728,0.42978917221686397,273.4563690948125,44.43493749999983,26.047604463466083
14:25:33:91,1.7815552,-0.878067,10.237869,0.059280396,0.17300415,0.021820068,54.374695,-48.6747735,-263.3255,10.428753628708325,0.18417577646005442,273.2522821523919,44.43493749999983,26.047604537552736
14:25:33:92,1.630722,-1.1055145,10.441376,0.1338501,0.22840881,-0.02078247,54.449463,-47.850037,-263.25073,10.625617597315003,0.26555290398511366,273.04819520997137,44.434937499999826,26.04760461163939
14:25:33:93,1.9922485,-1.2180328,9.998444,0.2169342,0.361557,-0.11985779,55.649566500000006,-49.0501405,-262.800595,10.267499228573824,0.43834894912880096,273.07512823399634,44.43493749999982,26.04760468572604
14:25:33:94,1.6546631,-1.1462097,9.6345215,0.2361145,0.32002258,-0.20187378,56.84967,-50.250244,-262.35046,9.842545970674353,0.4460017173415309,273.1020612580213,44.43493749999982,26.047604759812693
14:25:33:95,0.9866791,-1.3185883,9.593826,0.18391418,0.29551697,-0.16778564,55.725097500000004,-50.025177,-262.5,9.73415163584119,0.3864022853882504,272.97504716248187,44.43493749999981,26.047604833899346
14:25:33:96,0.6490936,-1.6753387,9.543549,0.10722351,0.26249695,-0.066589355,54.600525,-49.80011,-262.64954,9.711200223282376,0.29126563830177193,272.84803306694243,44.43493749999981,26.047604907985995
14:25:33:97,0.40249634,-1.7256165,9.620163,0.031585693,0.17832947,0.023956299,55.575562500000004,-49.4247435,-262.5,9.781988128972282,0.18268267606576313,272.8347708810113,44.434937499999805,26.04760498207265
14:25:33:98,0.34742737,-1.52211,9.859589,-0.0110321045,0.115478516,0.060180664,56.5506,-49.049377,-262.35046,9.982435568459538,0.1306855282988215,272.8215086950802,44.434937499999805,26.047605056159302
14:25:33:99,0.6538849,-1.1174774,10.115753,-0.0025024414,0.089920044,0.04206848,56.850435000000004,-49.7245785,-263.1752,10.198273381262524,0.09930575781611442,273.7991267677752,44.4349374999998,26.04760513024595
14:25:34:00,0.83584595,-0.7775116,10.034363,0.033721924,0.09524536,-0.026107788,57.15027,-50.39978,-263.99994,10.099089243889024,0.10435738284397668,274.77674484047026,44.43493749999979,26.047605204332605
14:25:34:01,0.71614075,-0.6985016,9.691986,0.06993103,0.12614441,-0.115600586,56.999970000000005,-49.199676499999995,-264.225005,9.743477545681989,0.1848411659091459,274.7471030403673,44.43493749999979,26.047605278419258
14:25:34:02,0.35940552,-0.7415924,9.457352,0.0869751,0.113357544,-0.18803406,56.84967,-47.999573,-264.45007,9.493189056763182,0.2361597097766796,274.7174612402643,44.43493749999978,26.047605352505908
14:25:34:03,-0.16493225,-0.8253937,9.514816,0.096572876,0.018539429,-0.2263794,56.774902,-47.6997375,-263.62533499999995,9.551973666261112,0.24681503915061057,273.8558105024391,44.43493749999978,26.04760542659256
14:25:34:04,-0.76109314,-0.9450989,9.61058,0.13491821,-0.15722656,-0.24768066,56.700134,-47.399902,-262.8006,9.686884051899057,0.3229068347017035,272.9941597646139,44.434937499999776,26.047605500679214
14:25:34:05,-1.2207794,-1.2898712,9.423843,0.18711853,-0.30529785,-0.21359253,56.700134,-48.149871,-263.1752,9.589728199730313,0.4169435097897367,273.48667495040286,44.434937499999776,26.047605574765868
14:25:34:06,-1.4673767,-1.5125275,9.239487,0.18179321,-0.36175537,-0.1209259,56.700134,-48.89984,-263.5498,9.476763890755544,0.4225385097440836,273.97919013619185,44.43493749999977,26.047605648852517
14:25:34:07,-1.5463867,-1.4071808,9.378342,0.106155396,-0.33085632,0.005844116,56.25,-48.600004999999996,-263.475035,9.608577849962476,0.3475183826442576,273.76151625782677,44.43493749999976,26.04760572293917
14:25:34:08,-1.4051208,-1.1605835,9.924225,0.016677856,-0.2381897,0.14433289,55.799866,-48.30017,-263.40027,10.09017147394879,0.2790062135555387,273.54384237946164,44.43493749999976,26.047605797025824
14:25:34:09,-1.148941,-0.86608887,10.137314,-0.029129028,-0.118881226,0.23594666,56.324768000000006,-48.5252375,-263.92517,10.23891158702012,0.2658045758308977,274.1967340327058,44.434937499999755,26.047605871112474
14:25:34:10,-0.7084198,-0.54766846,10.331238,-0.023803711,-0.009155273,0.25299072,56.84967,-48.750305,-264.45007,10.369970008045097,0.254272963736207,274.84962568595,44.434937499999755,26.047605945199127
14:25:34:11,-0.19606018,-0.08079529,10.290543,0.040100098,0.017486572,0.18055725,57.4501035,-48.5252375,-263.400265,10.292727661213855,0.18578137309074685,273.9262186326489,44.43493749999975,26.04760601928578
14:25:34:12,0.10322571,0.18257141,10.266602,0.13066101,0.030258179,0.031417847,58.050537,-48.30017,-262.35046,10.268744056278665,0.13774954824147898,273.0028115793478,44.43493749999975,26.04760609337243
14:25:34:13,-0.09788513,0.05807495,10.283356,0.24250793,0.103759766,-0.11878967,57.6004035,-48.975372,-262.800595,10.283985843107166,0.28928734996879585,273.46150920042567,44.43493749999974,26.047606167459083
14:25:34:14,-1.1154327,-0.5740051,9.955353,0.34584045,0.2081604,-0.19868469,57.15027,-49.650574,-263.25073,10.034078199698481,0.4499021838408418,273.92020682150354,44.434937499999734,26.047606241545736
14:25:34:15,-1.871994,-0.82299805,9.888306,0.4406433,0.26142883,-0.09854126,56.999970000000005,-49.725342,-263.10042999999996,10.097538456276153,0.521748915583393,273.7580445521829,44.434937499999734,26.047606315632386
14:25:34:16,-1.2016144,-0.25556946,10.072662,0.56848145,0.28912354,0.046325684,56.84967,-49.80011,-262.95013,10.147300758399547,0.6394604361290087,273.59588228286236,44.43493749999973,26.04760638971904
14:25:34:17,-0.65335083,0.13708496,9.069489,0.6771393,0.2273407,0.04525757,56.84967,-50.04984533333333,-262.84993333333335,9.094024978767152,0.7157161959347329,273.5454243312158,44.43493749999973,26.047606463805693
14:25:34:18,-0.6653137,0.5943756,7.3097534,0.52586365,-0.21261597,-0.1720581,56.84967,-50.299580666666664,-262.74973666666665,7.363994801878571,0.5927411904583427,273.49496637956935,44.43493749999972,26.047606537892342
14:25:34:19,-1.2926025,0.98461914,6.6489563,0.15621948,-0.92848206,-0.43304443,56.84967,-50.549316,-262.64954,6.844626794294213,1.0363449908342968,273.4445084279228,44.43493749999972,26.047606611978996
14:25:34:20,-1.0244446,1.0013885,7.5874786,-0.15270996,-1.4429932,-0.5661926,57.299805,-50.250244,-262.64954,7.72153463839018,1.5576019284220863,273.4833368549337,44.43493749999971,26.04760668606565
14:25:34:21,-0.2798462,0.7021179,9.174835,-0.34231567,-1.8829498,-0.616272,56.9252025,-49.275207,-263.39950999999996,9.205915528527287,2.0105897506034367,273.951202140197,44.434937499999705,26.0476067601523
14:25:34:22,-0.28463745,0.5776062,10.28096,-0.37002563,-2.0789642,-0.63438416,56.5506,-48.30017,-264.14948,10.30110605332364,2.2048706025972233,274.41906742546024,44.434937499999705,26.04760683423895
14:25:34:23,-0.57673645,0.27114868,10.522781,-0.30397034,-1.8563232,-0.56832886,55.4252635,-48.5252375,-263.549805,10.54206177715656,1.9650270948683775,273.65351963444016,44.4349374999997,26.047606908325605
14:25:34:24,-0.13859558,-0.49499512,10.628113,-0.2613678,-1.5463257,-0.46925354,54.299927,-48.750305,-262.95013,10.64053639833953,1.6369591266002523,272.88797184342013,44.4349374999997,26.047606982412255
14:25:34:25,0.45516968,-1.0073547,10.834015,-0.2230072,-1.3258209,-0.4458313,53.7750245,-48.450469999999996,-263.85040000000004,10.890262804424346,1.416438780247258,273.59989757826884,44.43493749999969,26.047607056498908
14:25:34:26,0.15589905,-1.2683105,10.659241,-0.14311218,-1.1585693,-0.43623352,53.250122,-48.150635,-264.75067,10.735564015657593,1.2462197249836935,274.31182331311754,44.43493749999969,26.04760713058556
14:25:34:27,0.029006958,-1.3999939,10.082245,-0.10902405,-1.0626984,-0.36486816,53.250122,-48.150635,-264.75067,10.179021984634606,1.128867975904511,274.31182331311754,44.434937499999684,26.047607204672214
14:25:34:28,-0.12184143,-1.0887451,9.912247,-0.12501526,-0.9998474,-0.26046753,53.250122,-48.150635,-264.75067,9.972605066673776,1.0407530796033844,274.31182331311754,44.43493749999968,26.047607278758864
14:25:34:29,-0.12901306,-0.9690399,9.960144,-0.11116028,-0.9060974,-0.1560669,52.275086,-48.600006,-264.82543499999997,10.008004356422841,0.9261349704076877,274.2778031200762,44.43493749999968,26.047607352845517
14:25:34:30,0.46235657,-0.7799072,9.706345,-0.08453369,-0.66322327,-0.111328125,51.30005,-49.049377,-264.9002,9.748597955473342,0.6777942180562805,274.2437829270349,44.43493749999967,26.04760742693217
14:25:34:31,1.0489349,-0.3585205,9.299332,-0.10050964,-0.45762634,-0.14329529,51.3748175,-48.224639499999995,-265.12527,9.365168285705403,0.4899567276106221,274.3303218207639,44.43493749999967,26.04760750101882
14:25:34:32,1.4679108,-0.013763428,9.13414,-0.22940063,-0.1486969,-0.24128723,51.449585,-47.399902,-265.35034,9.25134936581183,0.3646298732620242,274.41686071449294,44.43493749999966,26.047607575105474
14:25:34:33,1.2165222,-0.23641968,9.160477,-0.19319153,0.14318848,-0.3062744,51.525116,-48.0751035,-266.02554,9.243925540359633,0.38939686203642077,275.2016400859857,44.43493749999966,26.047607649192127
14:25:34:34,1.2021637,-0.18135071,9.316101,-0.20809937,0.19644165,-0.31799316,51.600647,-48.750305,-266.70074,9.39509571445742,0.42780172914085446,275.9864194574784,44.434937499999656,26.047607723278777
14:25:34:35,1.0800476,-0.3657074,9.739868,-0.17933655,0.14212036,-0.34994507,51.1505135,-47.92480449999999,-266.02554,9.806389415993253,0.41811642745739735,275.1060062755463,44.43493749999965,26.04760779736543
14:25:34:36,1.1135712,-0.427948,10.273773,-0.062164307,0.1335907,-0.36698914,50.70038,-47.099304,-265.35034,10.34280387340408,0.39546416407712576,274.2255930936141,44.43493749999965,26.047607871452083
14:25:34:37,1.127945,-0.40400696,10.41983,0.092300415,0.15596008,-0.36061096,50.849915,-47.4746705,-265.05050500000004,10.488486009699084,0.40358788093165066,274.0283610442856,44.43493749999964,26.047607945538733
14:25:34:38,1.235672,-0.43273926,10.642487,0.23292542,0.27954102,-0.3201294,50.99945,-47.850037,-264.75067,10.722717850615036,0.4846444737012656,273.831128994957,44.43493749999964,26.047608019625386
14:25:34:39,1.3865204,-0.38964844,10.848389,0.3852539,0.4776764,-0.27218628,51.24969433333334,-47.699992,-265.45054,10.943573850517552,0.671327551648529,274.5286622459844,44.434937499999634,26.04760809371204
14:25:34:40,1.2332764,-0.5261078,10.472504,0.48432922,0.582077,-0.23170471,51.499938666666665,-47.549946999999996,-266.15041,10.557987503593372,0.7918809884767991,275.22619549701176,44.434937499999634,26.04760816779869
14:25:34:41,0.79992676,-0.6338501,9.550735,0.42359924,0.6832733,-0.18164062,51.750183,-47.399902,-266.85028,9.605112587099596,0.8241917455637686,275.92372874803914,44.43493749999963,26.047608241885342
14:25:34:42,0.5269928,-0.56921387,8.277008,0.15515137,0.8260193,-0.09109497,53.100586,-49.049377,-264.9002,8.313277769515237,0.8453863762473747,274.58628803651413,44.43493749999963,26.047608315971996
14:25:34:43,0.55332947,-0.29626465,8.099838,-0.2230072,0.9389343,-0.025039673,53.100586,-49.4247435,-264.67513499999995,8.124119759792695,0.9653791049076403,274.43683026789853,44.43493749999962,26.047608390058645
14:25:34:44,0.91485596,-0.032913208,8.523621,-0.5628357,1.0657043,-0.02078247,53.100586,-49.80011,-264.45007,8.572640180157416,1.2053802683353834,274.2873724992829,44.43493749999961,26.0476084641453
14:25:34:45,1.0202026,0.014968872,9.2323,-0.7950592,1.1455994,-0.041030884,54.524992999999995,-48.8250735,-264.749905,9.288509067777008,1.395062955649967,274.685794415949,44.43493749999961,26.04760853823195
14:25:34:46,0.9196472,-0.056854248,9.936203,-0.8983917,1.0688934,-0.025039673,55.9494,-47.850037,-265.04974,9.978833270237182,1.3965198646694565,275.0842163326151,44.434937499999606,26.047608612318605
14:25:34:47,0.7927551,-0.18135071,10.326447,-0.872818,0.9080353,0.013305664,55.849709999999995,-47.850037,-265.39967666666666,10.3584195885474,1.2595699297238605,275.40128584329636,44.434937499999606,26.047608686405255
14:25:34:48,0.62994385,-0.2507782,10.640091,-0.7492523,0.71842957,0.005844116,55.75002,-47.850037,-265.74961333333334,10.661672263206606,1.0380530862135597,275.7183553539777,44.4349374999996,26.047608760491908
14:25:34:49,0.4695282,-0.30584717,10.93457,-0.521286,0.41801453,-0.04208374,55.65033,-47.850037,-266.09955,10.948918682084193,0.6695119732010089,276.035424864659,44.4349374999996,26.04760883457856
14:25:34:50,0.3570099,-0.4064026,11.130905,-0.2379303,0.045181274,-0.10493469,56.4003,-47.1000675,-266.09955,11.14404169325518,0.26393837224577477,276.0606907541958,44.43493749999959,26.04760890866521
14:25:34:51,0.17744446,-0.5165405,11.135696,0.070999146,-0.3766632,-0.14115906,57.15027,-46.350098,-266.09955,11.149081846902952,0.40846288103945616,276.08595664373263,44.434937499999585,26.047608982751864
14:25:34:52,-0.05958557,-0.7320099,10.668823,0.33944702,-0.73353577,-0.09321594,56.4003,-46.875,-265.20004500000005,10.694071868992616,0.8136265830996778,275.15468951296964,44.434937499999585,26.047609056838517
14:25:34:53,-0.17929077,-1.0791779,10.079849,0.48005676,-0.88479614,0.014373779,55.65033,-47.399902,-264.30054,10.139039697271956,1.006739940453014,274.22342238220665,44.43493749999958,26.047609130925167
14:25:34:54,0.15110779,-1.1821289,9.936203,0.5056305,-0.8943939,0.1177063,55.799865,-46.875,-264.52560500000004,10.007416867385055,1.0341457459890022,274.38113988010394,44.43493749999958,26.04760920501182
14:25:34:55,0.78556824,-1.0312958,9.759018,0.468338,-0.7303314,0.14859009,55.9494,-46.350098,-264.75067,9.84475092681975,0.88022920362606,274.53885737800124,44.43493749999957,26.047609279098474
14:25:34:56,1.1614532,-0.94989014,9.395111,0.3522339,-0.3479004,0.10385132,55.4244985,-46.50039700000001,-264.52560500000004,9.51416709524173,0.5058542332481882,274.24116722686324,44.43493749999957,26.047609353185123
14:25:34:57,1.3745422,-0.77511597,9.17244,0.1892395,0.03453064,0.058044434,54.899597,-46.650696,-264.30054,9.307192196367811,0.20093060935915155,273.9434770757253,44.43493749999956,26.047609427271777
14:25:34:58,1.4703064,-0.5548401,9.11499,0.009216309,0.3019104,0.025024414,54.674530000000004,-47.025299000000004,-264.15024,9.249469776508759,0.3030858810234929,273.81787755044274,44.434937499999556,26.04760950135843
14:25:34:59,1.58284,-0.43273926,9.263428,-0.14631653,0.44252014,-0.012268066,54.449463,-47.399902,-263.99994,9.407642852698508,0.4662436130396221,273.69227802516014,44.434937499999556,26.04760957544508
14:25:34:60,1.5301666,-0.41119385,9.320892,-0.23686218,0.46702576,-0.054870605,54.7500615,-47.6997375,-264.07471,9.454602999687369,0.5265240128531614,273.8766848398593,44.43493749999955,26.047609649531733
14:25:34:61,1.4128418,-0.4566803,9.284973,-0.2741394,0.3849945,-0.099609375,55.05066,-47.999573,-264.14948,9.40294647751248,0.4830064215416816,274.06109165455854,44.43493749999955,26.047609723618386
14:25:34:62,1.2835693,-0.4782257,9.407074,-0.27201843,0.17939758,-0.15394592,54.9751285,-47.549438499999994,-264.07471,9.506276411377852,0.36038432853575597,273.8956970784747,44.43493749999954,26.047609797705036
14:25:34:63,1.1997681,-0.4854126,9.668045,-0.23153687,-0.06668091,-0.20933533,54.899597,-47.099304,-263.99994,9.754289467103249,0.31918168229714233,273.7303025023909,44.43493749999954,26.04760987179169
14:25:34:64,1.0513306,-0.5931549,9.696777,-0.15377808,-0.28292847,-0.24128723,55.1246635,-47.174835,-264.07471,9.771622841351348,0.4023875549592708,273.86071457577657,44.434937499999535,26.047609945878342
14:25:34:65,1.2189178,-0.68891907,9.780579,-0.06854248,-0.48957825,-0.24662781,55.34973,-47.250366,-264.14948,9.88028823787077,0.5524583342687565,273.9911266491622,44.43493749999953,26.047610019964992
14:25:34:66,1.448761,-0.74398804,9.96492,-0.0067596436,-0.70796204,-0.2583313,54.450225,-47.250366,-264.67438,10.097131139347653,0.753651778623424,274.3190270991404,44.43493749999953,26.047610094051645
14:25:34:67,1.5852356,-0.7607422,10.427002,0.051818848,-0.8443146,-0.28604126,53.55072,-47.250366,-265.19928,10.574217290673205,0.8929568518151338,274.6469275491185,44.43493749999952,26.0476101681383
14:25:34:68,1.8342285,-0.8206024,10.429398,0.20202637,-0.72714233,-0.28497314,53.61480714285714,-47.27172828571428,-265.13519285714284,10.621211095327219,0.8066971629891018,274.60129982242967,44.43493749999952,26.047610242224952
14:25:34:69,1.90270384,-0.74207152,10.185669200000001,0.228231816,-0.6992309539999999,-0.283267208,53.678894285714286,-47.29309057142857,-265.0711057142857,10.3917906508452,0.791316951978569,274.5556720957408,44.43493749999951,26.0476103163116
14:25:34:70,1.97117918,-0.6635406399999999,9.9419404,0.254437262,-0.671319578,-0.281561276,53.742981428571426,-47.314452857142854,-265.00701857142855,10.162370206363182,0.7759367409680362,274.51004436905197,44.43493749999951,26.047610390398255
14:25:34:71,2.03965452,-0.5850097599999999,9.6982116,0.280642708,-0.6434082019999999,-0.279855344,53.80706857142857,-47.33581514285714,-264.94293142857146,9.932949761881163,0.7605565299575034,274.46441664236306,44.434937499999506,26.047610464484908
14:25:34:72,2.10812986,-0.50647888,9.4544828,0.306848154,-0.615496826,-0.27814941200000004,53.87115571428571,-47.357177428571426,-264.8788442857143,9.703529317399145,0.7451763189469707,274.4187889156742,44.4349374999995,26.047610538571558
14:25:34:73,2.1766052,-0.427948,9.210754,0.3330536,-0.58758545,-0.27644348,53.93524285714286,-47.378539714285715,-264.81475714285716,9.474108872917126,0.7297961079364379,274.37316118898536,44.4349374999995,26.04761061265821
14:25:34:74,2.3944702,-0.23881531,9.258636,-0.16548157,-0.13804626,-0.19335938,53.99933,-47.399902,-264.75067,9.566235459755024,0.2895319839735101,274.3275334622965,44.43493749999949,26.047610686744864
14:25:34:75,2.4112244,-0.16937256,9.33046,-0.29971313,-0.081588745,-0.24874878,53.849792,-48.750305,-266.70074,9.63847363345651,0.39794552285025186,276.4157684586462,44.43493749999949,26.047610760831514
14:25:34:76,2.188568,-0.17655945,9.61058,-0.42008972,-0.08477783,-0.2828369,54.0748595,-47.8500365,-265.80047,9.858207294757415,0.5134777164695634,275.43477549657723,44.434937499999485,26.047610834918167
14:25:34:77,2.1933594,-0.28909302,9.94577,-0.5063782,-0.13058472,-0.2785797,54.299927,-46.949768,-264.9002,10.188853768932061,0.592518269578929,274.45378253450826,44.434937499999485,26.04761090900482
14:25:34:78,2.2627869,-0.34654236,10.427002,-0.5489807,-0.16148376,-0.2775116,54.000091499999996,-46.800232,-264.60037,10.675329824885505,0.635979167780508,274.0797140149432,44.43493749999948,26.04761098309147
14:25:34:79,2.1933594,-0.45428467,10.829239,-0.55537415,-0.17001343,-0.27537537,53.700256,-46.650696,-264.30054,11.058463606581448,0.642788151159637,273.70564549537806,44.43493749999947,26.047611057178123
14:25:34:80,2.250824,-0.5165405,11.317657,-0.50531006,-0.105026245,-0.2551422,53.400421,-46.800232,-264.60037,11.550860692466397,0.5757311100651447,273.96233090525374,44.43493749999947,26.047611131264777
14:25:34:81,2.516571,-0.5045624,11.830002,-0.45204163,-0.05921936,-0.24449158,53.100586,-46.949768,-264.9002,12.105232758337973,0.5173245601580916,274.2190163151294,44.434937499999464,26.047611205351426
14:25:34:82,2.437561,-0.4854126,11.609741,-0.1910553,0.09738159,-0.24555969,53.8505555,-47.100066999999996,-265.4251,11.872801485245205,0.3260135934005118,274.8984925843047,44.434937499999464,26.04761127943808
14:25:34:83,2.2651825,-0.43034363,10.95134,-0.025939941,0.13146973,-0.25300598,54.600525,-47.250366,-265.95,11.191429542010612,0.2863026307268531,275.57796885347994,44.43493749999946,26.047611353524733
14:25:34:84,2.1933594,-0.3297882,10.685577,0.03265381,0.11975098,-0.2540741,54.524994,-46.950531,-265.65017,10.913346944789971,0.28277237631934016,275.22245414608125,44.43493749999946,26.047611427611383
14:25:34:85,2.0449219,-0.12149048,9.694382,0.106155396,0.09098816,-0.23596191,54.449463,-46.650696,-265.35034,9.908456382088696,0.2742732876729896,274.86693943868255,44.43493749999945,26.047611501698036
14:25:34:86,2.04072955,-0.12747574,9.62075825,0.09595816514285714,0.069074359,-0.22622244285714285,54.62101542857143,-46.39347657142857,-265.2646728571429,9.83566688641565,0.2611431904885814,274.77577108691014,44.43493749999944,26.04761157578469
14:25:34:87,2.0365371999999997,-0.133461,9.547134499999999,0.08576093428571428,0.047160558,-0.2164829757142857,54.792567857142856,-46.13625714285715,-265.1790057142857,9.762877390742606,0.2480130933041733,274.6846027351378,44.43493749999944,26.04761164987134
14:25:34:88,2.03234485,-0.13944626000000002,9.473510749999999,0.07556370342857142,0.025246756999999995,-0.20674350857142856,54.96412028571429,-45.879037714285715,-265.0933385714286,9.69008789506956,0.23488299611976513,274.5934343833654,44.434937499999435,26.047611723957992
14:25:34:89,2.0281525,-0.14543152,9.399887,0.06536647257142857,0.003332955999999998,-0.19700404142857142,55.13567271428571,-45.62181828571429,-265.0076714285714,9.617298399396514,0.221752898935357,274.50226603159297,44.434937499999435,26.047611798044645
14:25:34:90,1.8773193,0.05807495,9.519608,0.05516924171428571,-0.018580845,-0.1872645742857143,55.30722514285714,-45.36459885714286,-264.9220042857143,9.70312511140787,0.20862280175094883,274.41109767982056,44.43493749999943,26.0476118721313
14:25:34:91,1.7887421,0.08441162,9.440598,0.04497201085714285,-0.04049464600000001,-0.17752510714285716,55.478777571428566,-45.107379428571434,-264.83633714285713,9.608934083419838,0.19549270456654066,274.3199293280482,44.43493749999943,26.04761194621795
14:25:34:92,1.3984833,-0.020935059,8.901901,0.03477478,-0.062408447,-0.16778564,55.65033,-44.85016,-264.75067,9.011106215713763,0.18236260738213253,274.2287609762758,44.43493749999942,26.0476120203046
14:25:34:93,1.1183624,-0.14782715,8.842041,-0.025405884999999996,-0.036842346,-0.091087339,55.2749635,-45.600129,-264.900205,8.91371282741888,0.13493989043917767,274.4221206281602,44.434937499999414,26.047612094391255
14:25:34:94,1.1734314,-0.07839966,9.189209,-0.08558655,-0.011276245,-0.014389038,54.899597,-46.350098,-265.04974,9.26415942235857,0.08751717349622283,274.61548028004466,44.434937499999414,26.047612168477905
14:25:34:95,1.4703064,0.05328369,9.383133,-0.09411621,0.019607544,0.04206848,53.99933,-44.85016,-264.30054,9.497780001515617,0.10493842849969898,273.4634160847957,44.43493749999941,26.047612242564558
14:25:34:96,1.5888214,0.19932555999999998,9.4022905,-0.03765869,0.03168233266666667,0.0267995189,54.34977333333333,-45.150249,-264.75016,9.539452563264788,0.10121896592665364,274.01698348206463,44.43493749999941,26.04761231665121
14:25:34:97,1.7073364,0.34536743,9.421448,0.018798830000000002,0.04375712133333333,0.0115305578,54.70021666666667,-45.450338,-265.19978000000003,9.58112512501396,0.0974995033536083,274.57055087933355,44.4349374999994,26.04761239073786
14:25:34:98,1.606781,0.52493286,8.686417,0.07525635,0.05583191,-0.0037384033,55.05066,-45.750427,-265.6494,8.849358168102237,0.09378004078056296,275.1241182766025,44.4349374999994,26.047612464824514
14:25:34:99,1.6247329499999998,0.61950683,8.663673500000002,0.0401077282,0.011093140000000001,-0.018119811649999998,54.675293499999995,-45.375061,-265.6494,8.836991299163413,0.07041102406716473,274.98754653297846,44.43493749999939,26.047612538911167
14:25:35:00,1.6426849,0.7140808,8.64093,0.0049591064,-0.03364563,-0.03250122,54.299927,-44.999695,-265.6494,8.82462443022459,0.0470420073537665,274.85097478935444,44.434937499999386,26.047612612997817
14:25:35:01,1.7121277,0.71647644,9.158081,-0.030197144,-0.14337158,-0.07511902,56.84967,-45.750427,-264.14948,9.344258523432629,0.1646515855472201,274.0436723116621,44.434937499999386,26.04761268708447
14:25:35:02,1.55410765,0.698516845,9.340042,0.026794432999999996,-0.22273254,-0.10015105999999999,55.8746335,-46.424865499999996,-264.74991,9.496047790501038,0.25110922408395825,274.5383016482971,44.43493749999938,26.047612761171123
14:25:35:03,1.3960876,0.68055725,9.522003,0.08378601,-0.3020935,-0.1251831,54.899597,-47.099304,-265.35034,9.647837057569449,0.3375668626206964,275.03293098493214,44.43493749999938,26.047612835257773
14:25:35:04,1.1997681,0.50338745,9.428619,0.13598633,-0.3170166,-0.10920715,55.049641333333334,-46.649678333333334,-264.95005333333336,9.517967149856954,0.3618259363748699,274.60076938253894,44.43493749999937,26.047612909344426
14:25:35:05,1.12913515,0.53211975,9.3795395,0.122138978,-0.24137878499999998,-0.061798094,55.19968566666667,-46.200052666666664,-264.54976666666664,9.462505280549543,0.28016541124657357,274.16860778014575,44.43493749999937,26.04761298343108
14:25:35:06,1.0585022,0.56085205,9.33046,0.108291626,-0.16574097,-0.014389038,55.34973,-45.750427,-264.14948,9.407043411242134,0.19850488611827724,273.73644617775255,44.434937499999364,26.04761305751773
14:25:35:07,1.2883453,0.71647644,9.397507,0.08804321,-0.11993408,0.007980347,55.05066,-45.750427,-265.19928,9.512429233174677,0.1489948868612306,274.68952446286755,44.43493749999936,26.047613131604383
14:25:35:08,1.6594543,1.101944,9.253845,0.041168213,0.030258179,0.031417847,55.05066,-45.375061,-265.19928,9.465818318399602,0.059978831833612925,274.6275049825231,44.43493749999936,26.047613205691036
14:25:35:09,1.709732,1.1474304,9.177231,0.02305603,0.07713318,0.022888184,55.05066,-44.999695,-265.19928,9.405389351963542,0.08369574029238976,274.56548550217855,44.43493749999935,26.047613279777686
14:25:35:10,1.7192993,1.3557281,9.031189,-0.05256653,0.11122131,-0.02078247,54.9751285,-45.82519550000001,-265.87448,9.29281246543968,0.1247610954330632,275.33978268037833,44.43493749999935,26.04761335386434
14:25:35:11,1.7145233,1.477829,9.067093,-0.08985901,0.07287598,-0.07723999,54.899597,-46.650696,-266.54968,9.345359499245221,0.1391099068878295,276.1140798585781,44.43493749999934,26.047613427950992
14:25:35:12,1.6474762,1.4658661,9.158081,-0.102645874,0.05795288,-0.10707092,55.199686666666665,-46.35060633333334,-266.4998366666667,9.419840171428422,0.15924476022514736,276.07591225846267,44.43493749999934,26.047613502037645
14:25:35:13,1.2835617,1.2288360649999999,9.587837,-0.094116212,0.07180786,-0.134765625,55.49977633333334,-46.05051666666667,-266.44999333333334,9.76416581794917,0.1809344456841,276.03774465834715,44.434937499999336,26.047613576124295
14:25:35:14,0.9196472,0.99180603,10.017593,-0.08558655,0.08566284,-0.16246033,55.799866,-45.750427,-266.40015,10.108491464469918,0.20262413114305264,275.9995770582317,44.43493749999933,26.04761365021095
14:25:35:15,0.7233124,0.8313904,10.362366,-0.046173096,0.25289917,-0.08149719,58.94928,-46.650696,-265.04974,10.420797471554753,0.2696882217650786,275.50439147837625,44.43493749999933,26.0476137242976
14:25:35:16,0.6646576,0.93434145,10.670021,0.019866942,0.385528565,-0.037826537,58.649445,-47.175598,-265.34956999999997,10.732005962960873,0.3974759037103991,275.81886297621725,44.43493749999932,26.04761379838425
14:25:35:17,0.6060028,1.0372925,10.977676,0.08590698,0.51815796,0.005844116,58.34961,-47.7005,-265.6494,11.043214454366995,0.5252635856557196,276.13333447405824,44.43493749999932,26.047613872470905
14:25:35:18,0.51023865,1.1761627,10.901062,0.17219543,0.56715393,0.044189453,58.69954466666667,-47.000121666666665,-265.44951333333336,10.976194919218095,0.594363150089042,275.89723903124377,44.434937499999315,26.047613946557558
14:25:35:19,0.25645447,0.90083313,10.565872,0.20095825,0.5799408,0.062301636,59.04947933333333,-46.29974333333333,-265.24962666666664,10.607305046225106,0.6169254765334133,275.66114358842924,44.434937499999315,26.047614020644207
14:25:35:20,0.5150299,1.3892517,9.969711,0.1530304,0.69924927,0.18374634,59.399414,-45.599365,-265.04974,10.079206988020829,0.7390064697843237,275.42504814561477,44.43493749999931,26.04761409473086
14:25:35:21,1.4056702,1.9303284,10.067871,0.12319946,0.5586395,0.36909485,59.84955,-48.750305,-265.6494,10.347178500231626,0.6807989469741151,276.6372436841351,44.4349374999993,26.047614234672317
14:25:35:22,1.3458099,1.6573944,10.252228,0.165802,0.23052979,0.31584167,58.7249765,-47.8500365,-264.89944,10.472169758367814,0.4247237311357031,275.5201478223629,44.43493749999929,26.04761437461377
14:25:35:23,0.96513367,1.1402435,10.889084,0.2915039,-0.19877625,0.2508545,57.600403,-46.949768,-264.14948,10.99107768143397,0.43291396541290106,274.4030519605907,44.434937499999286,26.04761451455522
14:25:35:24,0.96273804,1.2336273,11.360748,0.4086914,-0.38305664,0.25831604,57.9750065,-47.4746705,-264.29977499999995,11.468011857705429,0.6168372770863733,274.71741189746797,44.43493749999928,26.047614654496677
14:25:35:25,1.4990387,1.3293915,11.458908,0.7421112,-0.7196808,0.30944824,58.34961,-47.999573,-264.45007,11.632754245527321,1.0790865119596194,275.0317718343452,44.43493749999927,26.047614794438132
14:25:35:26,1.3362274,1.319809,10.728683,0.69418335,-0.83792114,0.27215576,58.34961,-47.74983733333333,-263.7502,10.891833563522754,1.121637694613238,274.31545729571195,44.434937499999265,26.047614934379585
14:25:35:27,1.175827,1.2982635,10.628113,0.5855255,-0.7899933,0.23913574,58.34961,-47.500101666666666,-263.05033,10.771482868673665,1.0119858829749,273.59914275707877,44.43493749999925,26.047615074321037
14:25:35:28,1.7767639,1.0325165,11.578613,0.22972107,-0.18598938,0.21783447,58.34961,-47.250366,-262.35046,11.759560335441309,0.36717254226713386,272.8828282184455,44.43493749999924,26.047615214262493
14:25:35:29,2.1694183,0.8816681,12.529114,0.09976196,0.20497131,0.23701477,57.899475,-48.599243,-263.99994,12.74607437699657,0.3288490349450802,274.6091840151241,44.434937499999236,26.04761535420395
14:25:35:30,2.2340546,0.7691498,12.742203,0.07952881,0.37327576,0.23806763,58.7249755,-49.424743500000005,-263.700105,12.959410814687148,0.44981754198498153,274.6463631934971,44.43493749999923,26.0476154941454
14:25:35:31,2.4040527,0.72843933,13.137238,0.11361694,0.5991211,0.21676636,59.550476,-50.250244,-263.40027,13.375242633706208,0.6471804665994048,274.68354237187015,44.43493749999922,26.047615634086853
14:25:35:32,2.353775,0.6422577,12.926559,0.24464417,0.69924927,0.17416382,59.950256333333336,-49.999999333333335,-263.25022333333334,13.154796816534844,0.7610081127737827,274.5818320360095,44.434937499999215,26.04761577402831
14:25:35:33,2.2364502,0.53211975,12.586578,0.35223388499999997,0.608169555,0.15285492,60.35003666666667,-49.74975466666667,-263.10017666666664,12.794796077917931,0.7326844083111668,274.48012170014874,44.43493749999921,26.047615913969764
14:25:35:34,1.6594543,0.38368225,10.944153,0.4598236,0.51708984,0.13154602,60.749817,-49.49951,-262.95013,11.075896601637384,0.7043607038485509,274.37841136428807,44.4349374999992,26.047616053911216
14:25:35:35,1.6235352,0.49142456,10.819656,0.44917297,0.4116211,0.13900757,60.52475,-49.874877,-262.27493000000004,10.951818141393064,0.6249091065596146,273.75014219770924,44.434937499999194,26.04761619385267
14:25:35:36,1.7552185,0.5057831,10.896271,0.41401672,0.09524536,0.14007568,60.299683,-50.250244,-261.59973,11.04831798204726,0.44732842427969005,273.12187303113046,44.43493749999919,26.047616333794124
14:25:35:37,1.8869019,0.4291687,11.205124,0.42147827,-0.09649658,0.111312866,59.700012,-52.349854,-262.5,11.370988893172806,0.446481887842075,274.24596377453116,44.43493749999918,26.04761647373558
14:25:35:38,2.03175355,0.356147765,11.193153500000001,0.45236968499999997,-0.297836305,0.0713653565,60.2996825,-51.9752505,-261.59973,11.38278819621047,0.5709854912578312,273.4457298156,44.43493749999917,26.047616613677032
14:25:35:39,2.1766052,0.28312683,11.181183,0.4832611,-0.49917603,0.031417847,60.899353,-51.600647,-260.69946,11.394587499248136,0.6954890946735874,272.64549585666884,44.434937499999165,26.047616753618485
14:25:35:40,2.1311035,-0.016143799,10.728683,0.48538208,-0.5577698,0.014373779,60.3744515,-51.675415,-260.92453,10.938304332228437,0.7395333115552721,272.7587802437532,44.43493749999915,26.04761689355994
14:25:35:41,1.9443665,-0.2507782,10.189987,0.1892395,-0.06454468,0.019699097,59.84955,-51.750183,-261.1496,10.376863006327417,0.2009120665842841,272.8720646308376,44.434937499999144,26.047617033501396
14:25:35:42,1.5229797,-0.37527466,10.367157,-0.116485596,0.21562195,0.13154602,60.24983833333334,-51.750183,-261.29964333333334,10.485143895040222,0.27814757733102424,273.10416659347175,44.43493749999914,26.04761717344285
14:25:35:43,1.7336731,-0.40400696,10.913025,-0.151107788,0.20816040000000002,0.10065460000000001,60.650126666666665,-51.750183,-261.4496866666667,11.057258190528836,0.28017885160252665,273.3362685561059,44.43493749999913,26.0476173133843
14:25:35:44,1.7049408,-0.21965027,11.173996,-0.18572998,0.20069885,0.06976318,61.050415,-51.750183,-261.59973,11.305452488982107,0.282210125874029,273.56837051874004,44.43493749999912,26.047617453325756
14:25:35:45,1.4272156,-0.34176636,11.554672,-0.19851685,0.1485138,0.04206848,63.00049,-51.750183,-262.64954,11.647497312354059,0.2514657939638568,275.01258888091866,44.434937499999116,26.047617593267212
14:25:35:46,1.3817291,-0.74638367,11.621719,-0.106903076,0.043045044,0.022888184,61.875153499999996,-51.750183,-262.124635,11.727344814730676,0.11749473366088187,274.2570169633585,44.43493749999911,26.047617733208664
14:25:35:47,1.2428589,-1.1318512,11.312866,-0.0067596436,0.07713318,0.012237549,60.749817,-51.750183,-261.59973,11.437076659627959,0.07838990907022932,273.5014450457984,44.4349374999991,26.047617873150116
14:25:35:48,0.9675293,-1.3928223,10.826843,0.10508728,0.117614746,0.038864136,61.04990633333333,-51.200358,-261.39984000000004,10.958859258717798,0.16244071522087503,273.27496431602003,44.434937499999094,26.047618013091572
14:25:35:49,0.96393585,-1.484993,10.125343,0.2062912,0.16981506300000002,0.093727113,61.349995666666665,-50.650532999999996,-261.19995,10.2809533393515,0.28488864958697896,273.04848358624173,44.43493749999909,26.047618153033028
14:25:35:50,0.9603424,-1.5771637,9.423843,0.30749512,0.22201538,0.14859009,61.650085,-50.100708,-261.00006,9.603047419985202,0.40733658395308286,272.82200285646337,44.43493749999908,26.04761829297448
14:25:35:51,0.859787,-1.4718323,8.664871,0.3660736,0.19644165,0.19865417,61.50055,-50.250244,-260.0998,8.830940688926253,0.46050264030738347,271.9546113460885,44.43493749999907,26.047618432915932
14:25:35:52,0.6275482,-1.3521118,7.992111,0.36021422999999997,0.0931091305,0.230613705,61.725617,-51.450347,-260.17456500000003,8.129936119019847,0.4508281723233848,272.3038171250719,44.434937499999066,26.047618572857388
14:25:35:53,0.6155853,-1.2754974,7.518051,0.35435486,-0.010223389,0.26257324,61.950684,-52.65045,-260.24933,7.650289518546592,0.4411537043393861,272.6530229040552,44.43493749999905,26.047618712798844
14:25:35:54,0.65148926,-1.2012787,7.281021,0.3053589,-0.15934753,0.26470947,61.800639333333336,-52.45005166666667,-260.6994633333333,7.408156017080771,0.43440395559201783,273.01064434151874,44.434937499999045,26.047618852740296
14:25:35:55,0.58206177,-1.071991,7.2355347,0.23825073,-0.27546692,0.25724792,61.65059466666666,-52.249653333333335,-261.1495966666667,7.337637426520924,0.44589452419170356,273.36826577898233,44.43493749999904,26.04761899268175
14:25:35:56,0.52459717,-1.0480499,7.33609,0.16474915,-0.3670807,0.26257324,61.50055,-52.049255,-261.59973,7.429120221921437,0.48045314974751707,273.72588721644587,44.43493749999903,26.047619132623204
14:25:35:57,0.5557251,-1.0576324,7.465378,0.13278198,-0.40756226,0.27215576,60.600280999999995,-52.3498525,-260.774995,7.560376006732984,0.5077467948596088,272.79518683262336,44.43493749999902,26.04761927256466
14:25:35:58,0.90527344,-1.2108612,7.834091,0.06993103,-0.49064636,0.2934723,59.700012,-52.65045,-259.95026,7.978639397987346,0.5759775954022869,271.8644864488009,44.434937499999016,26.047619412506112
14:25:35:59,0.93640137,-1.1845245,8.212372,0.06248474,-0.5162201,0.28707886,61.19995,-51.150513,-260.24933,8.350029921097416,0.5939712166728092,272.197580124465,44.43493749999901,26.047619552447564
14:25:35:60,0.8885193,-1.1486053,8.356018,0.06674194,-0.51301575,0.28707886,59.7000115,-52.2750865,-259.874725,8.481261551089236,0.5916535457190515,271.7261144343288,44.434937499999,26.04761969238902
14:25:35:61,0.9603424,-1.0336914,8.526016,0.10295105,-0.5204773,0.31158447,58.200073,-53.39966,-259.50012,8.641974558393917,0.6152888918683429,271.25464874419265,44.434937499998995,26.047619832330476
14:25:35:62,1.1614532,-0.8876343,8.672058,0.1295929,-0.5684204,0.3030548,58.500162,-53.349813999999995,-260.04994666666664,8.79439924848143,0.6570679437239425,271.8355407098848,44.43493749999899,26.047619972271928
14:25:35:63,1.230896,-0.81581116,8.820496,0.15196228,-0.5961151,0.28494263,58.800251,-53.299968,-260.59977333333336,8.943254580834235,0.677966112266775,272.41643267557697,44.43493749999898,26.04762011221338
14:25:35:64,1.1303406,-0.59555054,8.727127,0.24357605,-0.61209106,0.20932007,59.10034,-53.250122,-261.1496,8.82015283267992,0.6912305328689778,272.99732464126913,44.43493749999897,26.047620252154836
14:25:35:65,1.0297699,-0.59794617,8.363205,0.26168823,-0.608902,0.17095947,59.10034,-53.250122,-261.1496,8.447553701586553,0.6844483294648427,272.99732464126913,44.434937499998966,26.04762039209629
14:25:35:66,1.06209565,-0.46865845000000006,8.139351000000001,0.23398590000000002,-0.597709665,0.14273071,58.125305,-53.175354,-261.449435,8.222777458762963,0.6583199517163972,273.06229761582324,44.43493749999895,26.047620532037744
14:25:35:67,1.0944214,-0.33937073,7.915497,0.20628357,-0.58651733,0.11450195,57.15027,-53.100586,-261.74927,7.998001215939373,0.6321915739679518,273.12727059037735,44.434937499998945,26.047620671979196
14:25:35:68,0.87176514,-0.35372925,7.6138153,0.14982605,-0.5300598,0.09638977,57.5248725,-53.400421,-260.9993,7.671719641914638,0.5591978402992052,272.54688836812227,44.43493749999894,26.047620811920652
14:25:35:69,0.76641846,-0.35372925,7.343277,0.068862915,-0.48213196,0.11024475,57.899475,-53.700256,-260.24933,7.391633022334329,0.49934680615610366,271.96650614586724,44.43493749999893,26.047620951862108
14:25:35:70,0.8262634,-0.29626465,7.271454,0.0124053955,-0.48320007,0.1262207,58.499907500000006,-53.625488000000004,-260.324865,7.324242433394405,0.4995676796931586,272.1530901522167,44.434937499998924,26.04762109180356
14:25:35:71,1.1590576,-0.09275818,7.6377563,-0.14099121,-0.55989075,0.15179443,59.10034,-53.55072,-260.4004,7.7257582086332715,0.5969905545415701,272.3396741585662,44.43493749999892,26.047621231745012
14:25:35:72,1.5732574,-0.018539429,8.2387085,-0.20703125,-0.6195526,0.13261414,58.499907500000006,-53.47519,-260.54993,8.387598005689986,0.6665537283454817,272.33892437306173,44.43493749999891,26.047621371686468
14:25:35:73,1.8653564,0.03413391,8.698395,-0.22727966,-0.608902,0.08041382,57.899475,-53.39966,-260.69946,8.896223648203648,0.6548924124623128,272.33817458755726,44.4349374999989,26.047621511627923
14:25:35:74,1.7791595,0.08201599,8.949783,-0.23472595,-0.4970398,0.011169434,57.975006,-52.949524999999994,-260.39963,9.125280866699114,0.5497904970471232,271.9795772755916,44.434937499998895,26.047621651569376
14:25:35:75,1.6043854,0.05328369,9.079071,-0.25709534,-0.33724976,-0.029312134,58.050537,-52.49939,-260.0998,9.219892726403828,0.42508189289760057,271.6209799636259,44.43493749999889,26.047621791510828
14:25:35:76,1.4703064,0.00061035156,9.189209,-0.29013062,-0.1721344,-0.04208374,57.6004035,-52.57492,-260.17456500000003,9.306092806763266,0.33996627700013426,271.6117574756441,44.43493749999888,26.047621931452284
14:25:35:77,1.333847,0.043701172,9.361588,-0.31462097,-0.044311523,-0.0463562,57.15027,-52.65045,-260.24933,9.456235376384576,0.3210899610899731,271.60253498766224,44.434937499998874,26.04762207139374
14:25:35:78,1.2452545,0.07722473,9.474121,-0.31889343,0.004699707,-0.0463562,57.24996,-52.40020666666667,-259.99959333333334,9.555919168313158,0.32227938845276893,271.3360572203001,44.43493749999886,26.04762221133519
14:25:35:79,1.2428589,0.23045349,9.747055,-0.30929565,0.070739746,-0.03250122,57.34965,-52.14996333333333,-259.74985666666663,9.82867683004113,0.31894237735765907,271.06957945293806,44.43493749999885,26.047622351276644
14:25:35:80,1.2931366,0.33340454,9.893097,-0.2741394,0.06008911,-0.031433105,57.44934,-51.89972,-259.50012,9.982821700549456,0.28240246433572974,270.80310168557594,44.434937499998846,26.0476224912181
14:25:35:81,1.3553925,0.38368225,9.809296,-0.24964905,0.05050659,-0.031433105,57.3745725,-51.9744875,-259.42535999999996,9.90992375922425,0.2566390537102092,270.7299720257134,44.43493749999884,26.047622631159555
14:25:35:82,1.4128418,0.4291687,9.608185,-0.20703125,0.035583496,-0.03036499,57.299805,-52.049255,-259.3506,9.720983834937282,0.21225022092295834,270.6568423658508,44.43493749999883,26.047622771101008
14:25:35:83,1.4679108,0.46029663,9.48848,-0.20916748,0.03665161,-0.021850586,57.675171,-52.2743225,-258.975225,9.612382005244381,0.2134755801343233,270.4209202496602,44.434937499998824,26.04762291104246
14:25:35:84,1.7671967,0.58239746,9.419052,-0.2613678,0.047302246,-0.0079956055,58.050537,-52.49939,-258.59985,9.601078666306686,0.26573400057349855,270.1849981334696,44.43493749999882,26.047623050983916
14:25:35:85,1.9707031,0.7140808,9.737473,-0.29438782,0.056900024,-0.023986816,57.675171,-51.74942,-258.59985,9.96052019339388,0.30079422972751796,269.9610405926991,44.43493749999881,26.04762319092537
14:25:35:86,2.2699738,0.833786,10.149277,-0.29864502,0.06008911,-0.068725586,57.299805,-50.99945,-258.59985,10.433398476489405,0.3122863354078047,269.7370830519286,44.4349374999988,26.047623330866823
14:25:35:87,2.3561707,0.9487152,10.549118,-0.27308655,0.066482544,-0.14329529,59.399414,-52.65045,-258.7494,10.85059866902161,0.3154833317051767,270.65035058005355,44.434937499998796,26.047623470808276
14:25:35:88,2.2292785999999998,0.8589325,10.82325,-0.23793029999999998,0.070213317,-0.19548797499999998,59.249877,-51.82495,-258.674625,11.085765473976402,0.32200574678430494,270.3878241871595,44.43493749999879,26.04762361074973
14:25:35:89,2.1023865,0.7691498,11.097382,-0.20277405,0.07394409,-0.24768066,59.10034,-50.99945,-258.59985,11.320932278931195,0.32852816186343325,270.12529779426546,44.43493749999878,26.047623750691187
14:25:35:90,1.9707031,0.5752106,11.260193,-0.15270996,0.07180786,-0.24235535,59.250385333333334,-50.99945,-258.59985,11.445806408460303,0.2953181611662305,270.15824499474667,44.434937499998775,26.04762389063264
14:25:35:91,2.18857575,0.591972365,11.355957,-0.08719635,0.0089569085,-0.21678924500000002,59.40043066666667,-50.99945,-258.59985,11.58173126547095,0.24758530131152698,270.1911921952278,44.43493749999876,26.04762403057409
14:25:35:92,2.4064484,0.60873413,11.451721,-0.02168274,-0.053894043,-0.19122314,59.550476,-50.99945,-258.59985,11.717656122481594,0.19985244145682346,270.224139395709,44.43493749999875,26.047624170515547
14:25:35:93,2.4782715,0.59916687,11.4014435,0.04437256,-0.12313843,-0.19761658,59.700012,-50.39978,-256.95038,11.683053729633793,0.23703229677559742,268.5660571237418,44.434937499998746,26.047624310457003
14:25:35:94,2.5213623,0.56803894,11.296097,0.06567383,-0.15934753,-0.20614624,59.749858,-50.69987,-256.65028666666666,11.587999979229659,0.2687023623456024,268.3470910819519,44.43493749999874,26.047624450398455
14:25:35:95,2.7464142,0.5728302,11.094986,0.07846069,-0.2733307,-0.2263794,59.799704,-50.99996,-256.3501933333333,11.444196771123332,0.3634740488427284,268.128125040162,44.43493749999873,26.047624590339908
14:25:35:96,2.736847,0.5081787,10.946548,0.037979126,-0.325531,-0.24023438,59.84955,-51.30005,-256.0501,11.294932058620216,0.4063562517135774,267.90915899837205,44.434937499998725,26.047624730281363
14:25:35:97,2.8661346,0.30467224,11.600159,-0.025939941,-0.35110474,-0.26153564,60.19948433333333,-51.25020433333333,-256.00025666666664,11.952875869196701,0.4385753184799171,267.93086174526525,44.43493749999872,26.04762487022282
14:25:35:98,2.8374023,0.134681701,12.0466845,-0.051498413,-0.35003662,-0.27005005,60.54941866666667,-51.200358666666666,-255.95041333333333,12.378979812380972,0.4450895992803533,267.95256449215844,44.43493749999871,26.04762501016427
14:25:35:99,2.80867,-0.035308838,12.49321,-0.057891846,-0.30104065,-0.26367188,60.899353,-51.150513,-255.90057,12.805083755565246,0.40435108394617253,267.97426723905164,44.4349374999987,26.047625150105723
14:25:36:00,2.7679749,-0.10473633,12.667984,-0.009963989,-0.2509613,-0.23703003,60.150146,-50.100708,-256.64978,12.96728473390277,0.3453463338393547,268.32299674081423,44.434937499998696,26.04762529004718
14:25:36:01,2.9092255,-0.16220093,12.964859,0.07632446,-0.2190094,-0.19761658,60.2249145,-49.800109,-256.12488,13.288245596820678,0.30470125233340933,267.7818589410748,44.43493749999869,26.047625429988635
14:25:36:02,3.2037048,-0.2675476,12.993591,0.20095825,-0.2190094,-0.17417908,60.299683,-49.49951,-255.59998,13.385391785042746,0.3445107943752545,267.24072114133537,44.43493749999868,26.047625569930087
14:25:36:03,3.6322784,-0.49499512,12.459686,0.33198547,-0.20410156,-0.18057251,60.099792666666666,-49.449665333333336,-255.55013333333332,12.987772779138322,0.42950929029912105,267.13890440030366,44.434937499998675,26.04762570987154
14:25:36:04,3.7998657,-0.6338501,12.004791,0.39163971,-0.23339080499999998,-0.212532045,59.89990233333334,-49.39982066666666,-255.50028666666665,12.607765553062427,0.5030440703222078,267.03708765927195,44.43493749999866,26.047625849812995
14:25:36:05,4.223648,-0.50935364,10.427002,0.45129395,-0.26268005,-0.24449158,59.700012,-49.349976,-255.45044,11.261483661866638,0.5765788503452944,266.93527091824024,44.434937499998654,26.04762598975445
14:25:36:06,4.217658999999999,-0.35372925,9.878731,0.4449005,-0.28611755,-0.2743225,59.399414,-50.100708,-253.6499,10.750187443889267,0.5958628544593987,265.2859647543659,44.43493749999865,26.047626129695903
14:25:36:07,4.21167,-0.19810486,9.33046,0.3330536,-0.34257507,-0.41600037,59.77478,-49.725342,-253.424835,10.238891225911898,0.633512972952095,265.0850298197104,44.43493749999864,26.047626269637355
14:25:36:08,4.204483,-0.2172699,9.227509,0.27340698,-0.36068726,-0.46820068,60.150146,-49.349976,-253.19977,10.142573926366818,0.6511977833127892,264.88409488505494,44.43493749999863,26.04762640957881
14:25:36:09,4.1230927,-0.4566803,9.062317,-0.03340149,-0.28825378,-0.67485046,59.549713,-49.500275,-253.80020000000002,9.966646362628223,0.7345944762797499,265.35167619026413,44.434937499998625,26.047626549520267
14:25:36:10,3.71966555,-0.5955429,9.0671005,-0.21183014500000003,-0.102363585,-0.74782563,58.94928,-49.650574,-254.40063,9.82676895559302,0.8236393737235213,265.8192574954734,44.43493749999862,26.04762668946172
14:25:36:11,3.3162384,-0.7344055,9.071884,-0.3902588,0.08352661,-0.8208008,58.94928,-49.124908500000004,-254.175565,9.686891548557815,0.9126842711672926,265.50653716092467,44.43493749999861,26.047626829403175
14:25:36:12,2.9906311,-0.8397522,9.3364485,-0.48879242500000003,0.20124054,-0.8442383,58.94928,-48.599243,-253.9505,9.847819221862448,1.0039608754125584,265.19381682637595,44.434937499998604,26.047626969344627
14:25:36:13,2.6650238,-0.9450989,9.601013,-0.58732605,0.31895447,-0.8676758,58.649445,-48.82431,-254.100035,10.00874689516708,1.0952374796578244,265.3121696083734,44.4349374999986,26.047627109286083
14:25:36:14,2.5189667,-1.0025635,9.7135315,-0.6416626,0.4265442,-0.89004517,58.34961,-49.049377,-254.24957,10.084791569920194,1.17722183611787,265.4305223903708,44.43493749999859,26.047627249227535
14:25:36:15,2.037735,-1.2563477,9.641708,-0.647521975,0.47607422499999996,-0.874595635,59.3246465,-47.9995725,-254.24957,9.934450494656677,1.1888814898203481,265.45860032218195,44.43493749999858,26.04762738916899
14:25:36:16,1.9132385,-1.3760529,9.622559,-0.65338135,0.52560425,-0.8591461,60.299683,-46.949768,-254.24957,9.906949321055482,1.2005411435228261,265.48667825399303,44.43493749999857,26.047627529110443
14:25:36:17,1.7863464,-1.4215393,9.62973,-0.6427307,0.5309448,-0.8303833,60.074616500000005,-46.724700999999996,-253.27453500000001,9.896641213822873,1.176665440254119,264.461999818626,44.43493749999856,26.0476276690519
14:25:36:18,1.6522675,-1.605896,9.861969,-0.45736694,0.45210266,-0.68551636,59.84955,-46.499634,-252.2995,10.127552636808819,0.9399542610210824,263.43732138325896,44.434937499998554,26.04762780899335
14:25:36:19,1.4655151,-1.6274414,9.5746765,-0.32208252,0.34558105,-0.6013489,59.999848,-45.674897,-252.44979999999998,9.82195144044269,0.7647116524153812,263.47258609411693,44.43493749999855,26.047627948934807
14:25:36:20,1.4056702,-1.6537781,9.423843,-0.25709534,0.28379822,-0.555542,60.150146,-44.85016,-252.6001,9.670558805149609,0.67473428643347,263.5078508049749,44.43493749999854,26.04762808887626
14:25:36:21,1.2620087,-1.6322327,8.942596,-0.09625244,0.05795288,-0.3840332,59.999848,-44.550325,-251.77535999999998,9.177519968109085,0.4001306876615289,262.63200624380613,44.43493749999853,26.047628228817715
14:25:36:22,1.2667999,-1.5556183,8.7798,-0.057891846,-0.016601562,-0.31692505,59.84955,-44.25049,-250.95062,9.00608784778024,0.32259659795420975,261.75616168263736,44.434937499998526,26.047628368759167
14:25:36:23,1.7049408,-1.3449249,8.537979,-0.0014343262,-0.15190125,-0.19548035,60.074616500000005,-44.25049,-251.850125,8.809808824406216,0.24756537374869897,262.67008847102807,44.43493749999852,26.047628508700623
14:25:36:24,1.9371796,-1.253952,8.506851,0.03265381,-0.25202942,-0.10281372,60.299683,-44.25049,-252.74963,8.814282407386386,0.2741455104014853,263.5840152594187,44.43493749999851,26.047628648642075
14:25:36:25,2.468689,-0.961853,8.509247,0.04437256,-0.3202057,-0.041030884,59.3246465,-44.10019,-251.850125,8.912175440336608,0.3258590919941701,262.4752922308287,44.4349374999985,26.04762878858353
14:25:36:26,2.6937408,-0.77511597,8.468552,0.031585693,-0.30955505,-0.04208374,58.34961,-43.94989,-250.95062,8.920393334446509,0.3139952645426048,261.3665692022386,44.43493749999849,26.047628928524983
14:25:36:27,2.7057114,-0.645828235,8.285393,0.006553649500000001,-0.24670409999999998,-0.062324525000000006,58.724975,-44.10019,-250.95062,8.740932740961632,0.25819108836548105,261.4762218452038,44.43493749999848,26.04762906846644
14:25:36:28,2.717682,-0.5165405,8.102234,-0.018478394,-0.18385315,-0.08256531,59.10034,-44.25049,-250.95062,8.561472147476755,0.20238691218835728,261.585874488169,44.434937499998476,26.04762920840789
14:25:36:29,2.681778,-0.4351349,8.035202,-0.037658691999999994,-0.13325500499999998,-0.10227203500000001,59.625243,-43.5752875,-250.050355,8.482083871507403,0.1801580766220095,260.7296763749368,44.43493749999847,26.047629348349346
14:25:36:30,2.7727509,-0.32499695,8.4565735,-0.05683899,-0.08265686,-0.12197876,60.150146,-42.900085,-249.15009,8.905470562068146,0.15792924105566172,259.8734782617046,44.43493749999846,26.0476294882908
14:25:36:31,2.6721954,-0.2866974,8.485306,-0.034454346,-0.05708313,-0.13369751,59.175109500000005,-43.274688499999996,-249.52469000000002,8.900743877260142,0.14940083623957637,260.07336381027403,44.434937499998455,26.047629628232254
14:25:36:32,2.2603912,-0.15501404,8.128571,0.015609741,-0.046432495,-0.13476562,58.200073,-43.649292,-249.89929,8.438427829381228,0.14339251354236213,260.27324935884343,44.43493749999845,26.047629768173707
14:25:36:33,2.207718,-0.09275818,7.8987274,0.057144165,-0.08798218,-0.12197876,58.5746765,-42.8993225,-249.52469000000002,8.201982527839942,0.16088858717210872,259.8741991498167,44.43493749999844,26.047629908115162
14:25:36:34,2.4112244,0.05807495,7.6305847,0.06674194,-0.19770813,-0.09642029,58.94928,-42.149353,-249.15009,8.002699461484665,0.2298692314050417,259.47514894078995,44.43493749999843,26.047630048056615
14:25:36:35,2.705719,0.24960327,7.688034,0.055023193,-0.2424469,-0.11665344,58.5746765,-42.37442,-248.99979000000002,8.154083877696605,0.2746198757398285,259.28296561103787,44.43493749999842,26.04763018799807
14:25:36:36,2.5884018,0.36692047,7.5946655,0.0417098995,-0.23392486499999998,-0.14754486,58.200073,-42.599487,-248.84949,8.033372369424507,0.2817505043882633,259.0907822812857,44.43493749999841,26.047630327939522
14:25:36:37,2.4710846,0.48423767,7.501297,0.028396606,-0.22540283,-0.17843628,59.0248115,-42.150116,-249.150085,7.91266086115241,0.2888811330366982,259.4939987911482,44.434937499998405,26.04763046788098
14:25:36:38,2.365738,0.51776123,7.3097534,-0.024871826,-0.23712158,-0.19335938,59.84955,-41.700745,-249.45068,7.700473215637249,0.3069741052014894,259.8972153010107,44.4349374999984,26.04763060782243
14:25:36:39,2.2723694,0.5656433,7.2858124,-0.11116028,-0.23179626,-0.2071991,59.74985866666667,-41.800435666666665,-249.80061666666668,7.65288686450316,0.33017810502890105,260.2263210419012,44.43493749999839,26.047630747763886
14:25:36:40,2.2627945,0.5548706,7.4474181999999995,-0.206504825,-0.17107391,-0.203475955,59.650167333333336,-41.90012633333333,-250.15055333333333,7.803574537809473,0.3542924444414497,260.5554267827917,44.434937499998384,26.04763088770534
14:25:36:41,2.2532196,0.5440979,7.609024,-0.30184937,-0.11035156,-0.19975281,59.550476,-41.999817,-250.50049,7.954262211115784,0.37840678385399834,260.8845325236822,44.43493749999838,26.047631027646794
14:25:36:42,2.243637,0.5584564,7.7407074,-0.34552002,-0.08052063,-0.19229126,59.399414,-42.599487,-249.60022,8.07863426520131,0.4035388268169309,260.0832107235201,44.43493749999837,26.047631167588246
14:25:36:43,2.2484283,0.6542206,8.353622,-0.41262817,-0.042175293,-0.17631531,59.624482,-41.5496825,-248.249815,8.675623028497103,0.45069707183160274,258.67045847369354,44.43493749999836,26.047631307529702
14:25:36:44,2.1766052,0.72366333,9.057526,-0.40623474,0.019607544,-0.1486206,59.84955,-40.499878,-246.89941,9.343450971270183,0.43301178102788324,257.25770622386705,44.434937499998355,26.047631447471154
14:25:36:45,2.140686,0.72366333,9.143707,-0.37161255,-0.001167297500000001,-0.1182556125,59.84955,-40.125274000000005,-247.425075,9.418789883399654,0.3909827673198063,257.7040771744923,44.43493749999834,26.04763158741261
14:25:36:46,2.1071625,0.89364624,9.598618,-0.33699036,-0.021942139,-0.087890625,59.84955,-39.75067,-247.95074,9.867735551462474,0.34895375361172937,258.1504481251175,44.434937499998334,26.047631727354062
14:25:36:47,2.1382904,1.01096342,9.881134249999999,-0.27254486499999997,-0.0277938845,-0.0703201295,59.999848,-39.3005365,-247.27553999999998,10.160702007818129,0.2831275787129713,257.4682939351178,44.43493749999833,26.047631867295518
14:25:36:48,2.1694183,1.1282806,10.1636505,-0.20809937,-0.03364563,-0.052749634,60.150146,-38.850403,-246.60034,10.453668464173784,0.21730140381421323,256.7861397451181,44.43493749999832,26.04763200723697
14:25:36:49,2.1311035,1.1737671,9.996048,-0.14524841,-0.0048980713,-0.017593384,59.175109500000005,-39.4500735,-246.60034,10.287871837802932,0.14639200412098824,256.65350627032984,44.43493749999831,26.047632147178426
14:25:36:50,2.0640717,1.2503815,9.931412,-0.11541748,0.007888794,0.028213501,58.200073,-40.049744,-246.60034,10.220410470819024,0.1190774092722958,256.5208727955416,44.434937499998306,26.047632287119878
14:25:36:51,2.243637,1.3940277,10.1636505,-0.102645874,0.013214111,0.074020386,58.899943,-39.699809333333334,-246.30025,10.501286192761652,0.12723916740663305,256.3404588643539,44.4349374999983,26.047632427061334
14:25:36:52,2.2939148,1.4443054,10.259415,-0.093048096,0.028137207,0.09320068,59.599813000000005,-39.349874666666665,-246.00016,10.611487140846622,0.13467003133380664,256.1600449331661,44.43493749999829,26.047632567002786
14:25:36:53,2.2915192,1.4874115,10.55629,-0.04724121,0.10910034,0.16351318,60.299683,-38.99994,-245.70007,10.9040685883023,0.20216620920443681,255.97963100197833,44.434937499998284,26.047632706944242
14:25:36:54,2.4303894,1.6286621,10.766983,-0.017410278,0.13679504,0.2050476,58.94928,-37.350464,-245.55054,11.15738570606474,0.24710426749532047,255.2746412549145,44.43493749999828,26.047632846885694
14:25:36:55,2.5093994,1.7531586,10.922607,0.002822876,0.13679504,0.2199707,58.94928,-36.975097000000005,-244.80057,11.343456003437547,0.2590520419838512,254.49871468505788,44.43493749999826,26.04763298682715
14:25:36:56,2.6315002,1.7052765,11.006409,0.070999146,0.10803223,0.23913574,58.94928,-36.59973,-244.0506,11.444378546663566,0.27184139419310266,253.72278811520124,44.434937499998256,26.047633126768606
14:25:36:57,2.815857,1.6286621,11.126114,0.12319946,0.08352661,0.24127197,59.39941433333333,-37.2996,-244.25049,11.591893875524457,0.2834906789121374,254.1239763078356,44.43493749999825,26.047633266710058
14:25:36:58,2.820633,1.556839,11.152451,0.15408325,0.08566284,0.24020386,59.84954866666667,-37.99947,-244.45038,11.608483169648435,0.2979558095529062,254.5251645004699,44.43493749999824,26.047633406651514
14:25:36:59,2.7200775,1.3868561,10.960907,0.19883728,0.113357544,0.2561798,60.299683,-38.69934,-244.65027,11.378210479278474,0.3435320751073331,254.92635269310426,44.434937499998235,26.047633546592966
14:25:36:60,2.7488098,1.2120819,10.769379,0.212677,0.10270691,0.30838013,58.94928,-35.850525,-241.49933,11.180546582995156,0.3884308436125599,251.16170915516344,44.43493749999823,26.04763368653442
14:25:36:61,3.1007538,1.0612335,11.083023,0.22120667,0.045181274,0.3488617,59.249878,-36.5249625,-241.94946499999998,11.557434381741725,0.41554569435820404,251.76288641288957,44.43493749999822,26.047633826475874
14:25:36:62,3.5053864,1.0277252,11.542709,0.27766418,-0.04324341,0.35951233,59.550476,-37.1994,-242.3996,12.106943625816593,0.4563074673786628,252.3640636706157,44.43493749999821,26.04763396641733
14:25:36:63,3.598755,1.0061798,11.736633,0.3149414,-0.10183716,0.35739136,58.7249755,-36.899564999999996,-241.57486,12.317142100204984,0.48712162423102834,251.33444863314972,44.434937499998206,26.04763410635878
14:25:36:64,3.87648,0.90800476,11.98085,0.39483643,-0.25842285,0.3403473,57.899475,-36.59973,-240.75012,12.625067784256949,0.5818199553767105,250.30483359568373,44.4349374999982,26.047634246300237
14:25:36:65,4.115906,0.6853485,12.112518,0.4875183,-0.4469757,0.2796173,57.899475,-36.249795666666664,-241.49983666666668,12.811068537308362,0.7180857913123403,250.9761655738715,44.434937499998185,26.04763438624169
14:25:36:66,4.11351,0.55366516,12.19632,0.5136184500000001,-0.39157867,0.23594665,57.899475,-35.899861333333334,-242.24955333333332,12.883234499608312,0.6911890692134797,251.64749755205924,44.43493749999818,26.047634526183145
14:25:36:67,4.0345,0.2519989,12.009567,0.5397186,-0.33618164,0.192276,57.899475,-35.549927,-242.99927,12.671637353676525,0.6642923471146192,252.318829530247,44.43493749999817,26.047634666124598
14:25:36:68,4.029709,0.2735443,11.770157,0.5301361,-0.24137878,0.17416382,56.399536,-37.049866,-239.99939,12.443873067232424,0.6079811149653341,249.30565062189297,44.43493749999816,26.047634806066053
14:25:36:69,3.9435272,0.41960144,11.111755,0.4033661,0.035583496,0.1177063,56.924437999999995,-36.2998965,-240.74936,11.798244417099305,0.42169321654074776,250.03838106457965,44.434937499998156,26.047634946007506
14:25:36:70,3.8477478,0.46987915,10.862747,0.27552795,0.20497131,0.06336975,57.44934,-35.549927,-241.49933,11.533656052354717,0.3492056906314402,250.77111150726637,44.43493749999815,26.04763508594896
14:25:36:71,3.5293274,0.51057434,10.764587,0.14770508,0.3327942,0.0026550293,57.149505000000005,-35.4751585,-240.449525,11.339892915439114,0.36410962551411663,249.6808679413213,44.43493749999814,26.047635225890414
14:25:36:72,3.1318817,0.34298706,10.654449,0.04437256,0.4350586,-0.04208374,56.84967,-35.40039,-239.39972,11.110517836704252,0.43933580628865343,248.59062437537622,44.434937499998135,26.04763536583187
14:25:36:73,2.899643,0.21609497,10.652069,-0.00036621094,0.47021484,-0.05168152,56.25,-35.100555,-240.449525,11.041793357252674,0.47304662494958,249.425220415174,44.43493749999813,26.04763550577332
14:25:36:74,2.2939148,-0.09994507,10.834015,-0.07493591,0.47447205,-0.031433105,55.65033,-34.80072,-241.49933,11.074651919898042,0.4813804700324595,250.25981645497183,44.43493749999812,26.047635645714777
14:25:36:75,2.1813812,-0.33218384,11.071045,-0.06428528,0.38180542,0.0154418945,55.799865,-34.0499875,-240.599825,11.288791230034134,0.38748732633700933,249.3227211757574,44.434937499998114,26.04763578565623
14:25:36:76,2.286728,-0.54766846,11.281738,-0.034454346,0.32214355,0.03781128,55.9494,-33.299255,-239.70032,11.524177974532794,0.3261797995893195,248.38562589654302,44.4349374999981,26.047635925597685
14:25:36:77,2.2603912,-0.7679291,11.272156,0.1253357,0.14956665,0.11450195,55.649564999999996,-33.374786,-240.15045500000002,11.522177935095442,0.22625188847944452,248.7632350263289,44.43493749999809,26.047636065539137
14:25:36:78,2.250824,-0.8206024,11.114136,0.1849823,0.089920044,0.14433289,55.34973,-33.450317,-240.60059,11.369415816318698,0.2512688774241729,249.1408441561148,44.434937499998085,26.047636205480593
14:25:36:79,2.3944702,-1.0217133,10.35997,0.3341217,-0.062408447,0.22102356,54.225158,-33.450317,-239.47525000000002,10.682058041734512,0.40544239879780136,247.80726269192576,44.43493749999808,26.047636345422045
14:25:36:80,2.5907898,-1.0193176,9.7925415,0.37460327,-0.13058472,0.2476654,53.100586,-33.450317,-238.34991,10.1806222396608,0.46767310094694486,246.47368122773673,44.43493749999807,26.0476364853635
14:25:36:81,2.7033234,-1.0600281,9.505234,0.37460327,-0.15829468,0.2476654,53.175354,-32.775116,-239.17464999999999,9.938867660479898,0.47615435099151965,247.19821285981664,44.434937499998064,26.047636625304953
14:25:36:82,2.9164124,-1.1869202,8.959366,0.3106842,-0.2275238,0.22209167,53.250122,-32.099915,-239.99939,9.496550951266348,0.44454073106912134,247.92274449189654,44.43493749999806,26.04763676524641
14:25:36:83,2.8517609,-1.2611389,8.909088,0.23078918,-0.26268005,0.18693542,53.250122,-31.9496155,-239.849855,9.439007392072856,0.39649628689768496,247.75860101055463,44.43493749999805,26.04763690518786
14:25:36:84,2.7679749,-1.2683105,8.978516,0.13598633,-0.27120972,0.15284729,53.250122,-31.799316,-239.70032,9.48071970547048,0.33971942574673497,247.59445752921275,44.43493749999804,26.047637045129317
14:25:36:85,2.6219177,-1.2467651,9.268219,0.040100098,-0.25628662,0.12942505,53.475189,-31.799316,-239.099885,9.71229937100954,0.28989945329050987,247.06208754726583,44.43493749999803,26.04763718507077
14:25:36:86,2.437561,-1.20607,9.648895,-0.046173096,-0.22007751,0.111312866,53.700256,-31.799316,-238.49945,10.024843300253924,0.25091157673403447,246.5297175653189,44.43493749999802,26.047637325012225
14:25:36:87,2.310669,-1.2778931,10.216324,-0.08453369,-0.1721344,0.10066223,53.025055,-31.499481000000003,-238.949585,10.552036679028584,0.2165850432438699,246.78221693569907,44.434937499998014,26.047637464953677
14:25:36:88,2.0999908,-1.309021,10.613754,-0.067489624,-0.11141968,0.098526,52.349854,-31.199646,-239.39972,10.898406824441894,0.16332962718063057,247.03471630607922,44.43493749999801,26.047637604895133
14:25:36:89,1.9132385,-1.3353577,10.857956,0.011352539,-0.048568726,0.10810852,52.349854,-30.825043,-238.12484999999998,11.105803448772518,0.11905987310424951,245.75242834160633,44.434937499998,26.047637744836585
14:25:36:90,1.8150787,-1.388031,10.664032,0.1253357,0.027069092,0.13793945,52.349854,-30.45044,-236.84998,10.90608633934184,0.18833232675910144,244.47014037713342,44.43493749999799,26.04763788477804
14:25:36:91,1.8054962,-1.3616943,10.178009,0.25636292,0.10803223,0.16989136,51.674652,-29.8500065,-237.52517999999998,10.42621192470918,0.32596929866530205,244.90933649280146,44.434937499997986,26.047638024719493
14:25:36:92,1.66185,-1.2515564,9.46933,0.3650055,0.18153381,0.19439697,50.99945,-29.249573,-238.20038,9.695171452521144,0.451634499510995,245.3485326084695,44.43493749999798,26.04763816466095
14:25:36:93,1.5804443,-1.119873,8.707977,0.4395752,0.21669006,0.22102356,50.39978,-28.9497375,-238.500215,8.92080619417665,0.537617291977218,245.481362720346,44.43493749999797,26.0476383046024
14:25:36:94,1.6211395,-1.0887451,8.018433,0.48005676,0.23692322,0.2434082,49.80011,-28.649902,-238.80005,8.252801157590268,0.5880770840834609,245.61419283222253,44.434937499997964,26.047638444543857
14:25:36:95,1.6235352,-1.0384674,7.348068,0.48538208,0.26036072,0.2551117,49.575042999999994,-28.800201,-238.20038,7.596603479129722,0.6070135481032815,245.00330029940983,44.43493749999795,26.04763858448531
14:25:36:96,1.6403046,-0.8996124,6.818939,0.44703674,0.27207947,0.25831604,49.349976,-28.9505,-237.60071,7.070914420125301,0.5836062554724633,244.3924077665971,44.43493749999794,26.047638724426765
14:25:36:97,1.6498718,-0.8134155,6.596283,0.39164734,0.25610352,0.26150513,49.349976,-29.1755675,-238.20038,6.847968395675062,0.5360611764545002,245.00223116779944,44.434937499997936,26.047638864368217
14:25:36:98,1.5995941,-0.77511597,6.36644,0.33944702,0.2081604,0.2519226,49.349976,-29.400635,-238.80005,6.60992165803074,0.47119001252764303,245.61205456900177,44.43493749999793,26.047639004309673
14:25:36:99,1.6714172,-0.65779114,6.153351,0.28831482,0.1335907,0.23806763,49.199676499999995,-29.025268500000003,-237.674715,6.410152351506112,0.39704925010877345,244.4430564399786,44.43493749999792,26.047639144251125
14:25:37:00,1.7983093,-0.6075134,6.0288544,0.21588135,0.031326294,0.21037292,49.049377,-28.649902,-236.54938,6.320607110558717,0.3030558685175447,243.27405831095544,44.434937499997915,26.04763928419258
14:25:37:01,1.9802704,-0.4494934,6.0815277,0.13171387,-0.069869995,0.17416382,48.82431,-28.424835,-237.674715,6.411590624769099,0.22926708431144083,244.29771684251682,44.43493749999791,26.047639424134037
14:25:37:02,2.207718,-0.3872528,6.3137665,0.04437256,-0.16255188,0.11982727,48.599243,-28.199768,-238.80005,6.6998232002907425,0.2067622122345882,245.32137537407817,44.4349374999979,26.04763956407549
14:25:37:03,2.3202515,-0.34654236,6.5938873,-0.05470276,-0.24777222,0.046325684,48.599243,-28.199768,-238.80005,6.9987862058808386,0.25793319668746373,245.32137537407817,44.43493749999789,26.047639704016945
14:25:37:04,2.2795563,-0.3872528,6.972168,-0.171875,-0.27227783,-0.023986816,48.599243,-28.199768,-238.80005,7.345574741039773,0.32288016302697625,245.32137537407817,44.434937499997886,26.047639843958397
14:25:37:05,2.2005463,-0.48301697,7.659317,-0.30078125,-0.23712158,-0.078308105,47.9248045,-27.749634,-237.374875,7.983786464970157,0.390932428127867,243.74962268676765,44.43493749999788,26.047639983899852
14:25:37:06,2.0544891,-0.54766846,8.478134,-0.39772034,-0.14976501,-0.11026001,47.250366,-27.2995,-235.9497,8.740687749030599,0.4390538655737082,242.17786999945713,44.43493749999787,26.047640123841305
14:25:37:07,1.9204254,-0.6338501,9.227509,-0.44459534,-0.015548706,-0.11878967,46.800232,-27.224731499999997,-236.025235,9.44651904202369,0.4604538677291124,242.15609164233734,44.43493749999786,26.04764026378276
14:25:37:08,1.66185,-0.7104645,9.907471,-0.44992065,0.14744568,-0.10600281,46.350098,-27.149963,-236.10077,10.070972487505923,0.48518595978756535,242.13431328521753,44.43493749999785,26.047640403724213
14:25:37:09,1.5565033,-0.6362457,10.5395355,-0.4179535,0.3008423,-0.06765747,46.724700999999996,-26.3999935,-236.47537499999999,10.672830911685972,0.5193926750333901,242.49015816464885,44.434937499997844,26.04764054366567
14:25:37:10,1.6091766,-0.427948,11.063858,-0.3401947,0.39671326,-0.023986816,47.099304,-25.650024,-236.84998,11.188455776596498,0.5231531438400571,242.84600304408013,44.43493749999784,26.04764068360712
14:25:37:11,1.709732,-0.30345154,11.339203,-0.21981812,0.46170044,0.007980347,46.125030499999994,-25.050354,-236.325075,11.471390108620723,0.5114205589480818,242.08590694223312,44.43493749999783,26.047640823548576
14:25:37:12,1.6738129,-0.28190613,11.015976,-0.08453369,0.54904175,0.03353882,45.150757,-24.450684,-235.80017,11.145979002443617,0.556522812142567,241.32581084038608,44.43493749999782,26.04764096349003
14:25:37:13,1.5229797,-0.28909302,10.450943,0.0049591064,0.6332092,0.06762695,45.075226,-24.975586,-236.250305,10.565285208174638,0.6368295596682279,241.80574026250304,44.434937499997815,26.047641103431484
14:25:37:14,1.3314514,-0.26275635,9.996048,0.02305603,0.70350647,0.13261414,44.999695,-25.500488,-236.70044,10.087753929806738,0.7162677180909114,242.28566968461996,44.43493749999781,26.047641243372937
14:25:37:15,1.3769379,-0.08319092,9.873947,-0.013153076,0.7280121,0.2199707,44.999695,-25.100199333333332,-236.70044,9.969839921906262,0.7606324539573379,242.24452094620358,44.4349374999978,26.047641383314392
14:25:37:16,1.551712,0.10595703,10.137314,-0.06321716,0.71203613,0.29026794,44.999695,-24.699910666666668,-236.70044,10.255933509815009,0.7715227389621683,242.20337220778723,44.434937499997794,26.047641523255844
14:25:37:17,1.8031006,0.09158325,10.599396,-0.09837341,0.70350647,0.3403473,44.999695,-24.299622,-236.70044,10.752058167170457,0.78767694249875,242.16222346937084,44.43493749999779,26.0476416631973
14:25:37:18,2.0640717,0.10835266,11.264984,-0.12394714,0.7045746,0.3733673,44.85016,-23.849487,-235.04944,11.453034392767968,0.8069643122150011,240.47572460957963,44.43493749999778,26.047641803138752
14:25:37:19,2.2963104,0.08441162,11.731842,-0.13778687,0.7312012,0.37976074,44.10019,-23.62442,-235.575105,11.954759867421142,0.8353793366316793,240.83050811026578,44.43493749999777,26.047641943080208
14:25:37:20,2.2340546,-0.12867737,11.698334,-0.1676178,0.8356018,0.38827515,43.35022,-23.399353,-236.10077,11.910439798634107,0.9365274620360059,241.1852916109519,44.43493749999776,26.04764208302166
14:25:37:21,2.1909637,-0.16459656,11.533127,-0.2379303,1.0230865,0.401062,44.400025,-22.5746155,-235.12573500000002,11.740546510295445,1.1243520542891983,240.34791140007704,44.43493749999775,26.047642222963116
14:25:37:22,2.116745,-0.17895508,11.140472,-0.3391266,1.2254944,0.401062,45.44983,-21.749878,-234.1507,11.341197057562612,1.3333019549610359,239.51053118920217,44.434937499997744,26.04764236290457
14:25:37:23,1.9371796,-0.0017852783,10.817261,-0.47122192,1.3618469,0.38401794,44.69986,-21.1502075,-234.900665,10.98934954999593,1.491357386802352,240.0519164430322,44.43493749999774,26.047642502846024
14:25:37:24,1.7671967,0.20890808,10.817261,-0.6043854,1.3970032,0.3488617,43.94989,-20.550537,-235.65063,10.962653068691957,1.5616030668099656,240.59330169686226,44.43493749999773,26.047642642787476
14:25:37:25,1.6498718,0.22087097,11.078232,-0.6917267,1.301117,0.30625916,44.09993466666667,-20.900472,-235.10029666666668,11.202592788620318,1.505053470234794,240.11292678537438,44.43493749999772,26.047642782728932
14:25:37:26,1.6762085,0.09877014,11.607346,-0.71302795,1.1083069,0.2476654,44.249979333333336,-21.250407,-234.54996333333332,11.728167445928792,1.3409292272249018,239.6325518738865,44.434937499997716,26.047642922670384
14:25:37:27,1.58284,-0.12867737,12.050278,-0.66296387,0.9325409,0.17842102,44.400024,-21.600342,-233.99963,12.154469968222973,1.1580102259807672,239.15217696239864,44.43493749999771,26.04764306261184
14:25:37:28,1.4655151,-0.6697693,11.779724,-0.58200073,0.9367981,0.1219635,45.150757,-20.399475,-232.8003,11.889416425532689,1.1095902961077089,238.014094368461,44.4349374999977,26.047643202553292
14:25:37:29,1.2380676,-0.9187622,11.434967,-0.5713501,0.9751587,0.11450195,44.2504885,-20.624542499999997,-233.025365,11.538431680839802,1.135995652944809,238.08654889042822,44.434937499997694,26.047643342494748
14:25:37:30,1.3601837,-0.68652344,11.904236,-0.60331726,0.9325409,0.14433289,43.35022,-20.84961,-233.25043,12.001343627907298,1.1200251021840848,238.15900341239546,44.43493749999769,26.0476434824362
14:25:37:31,1.5852356,-0.48301697,12.572205,-0.5766754,0.88993835,0.14007568,43.40006533333333,-19.799805,-233.55052,12.6809548482297,1.0696569449563467,238.3773002875931,44.43493749999768,26.047643622377656
14:25:37:32,1.5469208,-0.6697693,12.928955,-0.47761536,0.9272156,0.1027832,43.44991066666667,-18.75,-233.85061,13.038383038886384,1.0480503743587564,238.59559716279077,44.43493749999767,26.047643762319108
14:25:37:33,1.3194733,-0.8612976,12.976837,-0.33699036,1.0220184,0.05697632,43.499756,-17.700195,-234.1507,13.072151386430148,1.0776504134979172,238.8138940379884,44.43493749999766,26.047643902260564
14:25:37:34,0.95555115,-1.0456543,12.545868,-0.20703125,1.2127075,0.028213501,42.5247195,-18.2250975,-234.300235,12.625580176324526,1.230576052372014,238.82703882775706,44.43493749999765,26.047644042202016
14:25:37:35,0.56770325,-1.1246643,11.691147,-0.1484375,1.4023285,0.023956299,41.549683,-18.75,-234.44977,11.758829658744279,1.4103661998148842,238.8401836175257,44.434937499997645,26.047644182143472
14:25:37:36,0.3905182,-1.1486053,10.963303,-0.1591034,1.4981995,0.038864136,41.09955,-18.600464,-235.04944,11.030222630098104,1.5071250959223113,239.33948590972489,44.43493749999764,26.047644322084924
14:25:37:37,0.34503174,-1.1797333,10.462921,-0.19212341,1.5099182,0.038864136,40.89965933333333,-18.400065333333334,-234.99959333333334,10.53487225423153,1.5225881900331075,239.24109020493336,44.43493749999763,26.04764446202638
14:25:37:38,0.31152344,-1.2348022,10.087036,-0.20491028,1.4353485,0.029281616,40.69976866666667,-18.199666666666666,-234.94974666666667,10.167107680756128,1.4501968667520626,239.14269450014183,44.43493749999762,26.047644601967832
14:25:37:39,0.26602173,-1.3185883,9.823669,-0.19212341,1.2734222,0.012237549,40.499878,-17.999268,-234.8999,9.91533737637253,1.2878917896036124,239.0442987953503,44.434937499997616,26.047644741909288
14:25:37:40,0.23968506,-1.3904266,9.703964,-0.13885498,1.0198975,-0.0005493164,41.2498475,-17.099762,-235.05020000000002,9.806000834757803,1.0293065227256444,239.2569690229089,44.43493749999761,26.04764488185074
14:25:37:41,0.36418152,-1.4598541,9.751846,-0.041915894,0.6822052,-0.03250122,41.999817,-16.200256,-235.2005,9.867233785641867,0.6842639888072056,239.46963925046745,44.4349374999976,26.047645021792196
14:25:37:42,0.48390198,-1.5364685,9.541153,0.08590698,0.32746887,-0.08149719,41.3246155,-16.425323,-235.65063500000002,9.67618195091169,0.3482207087605409,239.8110286971065,44.434937499997595,26.047645161733648
14:25:37:43,0.7688141,-1.6226654,9.308914,0.21588135,0.017486572,-0.14115906,40.649414,-16.65039,-236.10077,9.480506209064576,0.25852740221921794,240.15241814374554,44.43493749999759,26.047645301675104
14:25:37:44,1.0010529,-1.5915375,9.07428,0.32133484,-0.24884033,-0.20187378,40.499877,-16.125488,-236.32507500000003,9.267019803631838,0.4537957825760646,240.312577737975,44.43493749999758,26.047645441616556
14:25:37:45,1.0704803,-1.5532227,8.803741,0.3852539,-0.4608307,-0.26367188,40.35034,-15.600586,-236.54938,9.003570648557403,0.6559789339837327,240.47273733220447,44.434937499997574,26.04764558155801
14:25:37:46,1.0513306,-1.5675964,8.626572,0.39271545,-0.60995483,-0.31373596,39.300536,-16.2750245,-236.62491,8.830651107080005,0.7903800174005875,240.4211234092869,44.43493749999756,26.047645721499467
14:25:37:47,0.96513367,-1.605896,8.454178,0.35542297,-0.6493683,-0.3478241,38.250732,-16.949463,-236.70044,8.659301970682607,0.8179158154659445,240.3695094863693,44.43493749999755,26.04764586144092
14:25:37:48,0.79992676,-1.6418152,8.521225,0.27766418,-0.61209106,-0.3552704,37.950134,-16.2750245,-237.37488,8.714741274010384,0.7602433292723824,240.94106368501707,44.434937499997545,26.047646001382375
14:25:37:49,0.6754303,-1.7854614,8.703186,0.19351196,-0.47680664,-0.32757568,37.649536,-15.600586,-238.04932,8.910079968869194,0.6099977678144352,241.5126178836648,44.43493749999754,26.047646141323828
14:25:37:50,0.48869324,-1.7806702,8.770218,0.11680603,-0.30529785,-0.27964783,37.649536,-15.750122000000001,-238.949585,8.962495813751532,0.4301782591934329,242.40974829986573,44.43493749999753,26.047646281265283
14:25:37:51,0.38095093,-1.7208252,8.85881,0.06034851,-0.15509033,-0.22744751,37.649536,-15.899658,-239.84985,9.032434754600938,0.28182853461622565,243.30687871606665,44.434937499997524,26.047646421206736
14:25:37:52,0.35461426,-1.5628052,8.918655,0.029449463,-0.07626343,-0.16885376,36.299896000000004,-15.0001525,-239.84985,9.061485439792273,0.18760323529324024,243.0497934891466,44.43493749999752,26.04764656114819
14:25:37:53,0.28518677,-1.4742126,8.9066925,0.03691101,-0.051757812,-0.111328125,34.950256,-14.100647,-239.84985,9.032375411448422,0.12820002019603222,242.79270826222654,44.43493749999751,26.047646701089644
14:25:37:54,0.48150635,-1.2707062,8.839645,0.07739258,-0.05921936,-0.05593872,35.774993,-14.6255495,-239.47525000000002,8.943481779365001,0.11236407091728388,242.5761763606203,44.4349374999975,26.0476468410311
14:25:37:55,0.82388306,-1.0600281,8.753464,0.14556885,-0.06668091,-0.027175903,36.59973,-15.150452,-239.10065,8.855821524208839,0.16240432122519402,242.35964445901405,44.434937499997496,26.04764698097255
14:25:37:56,0.9699249,-0.8277893,8.722336,0.23292542,-0.06347656,-0.029312134,36.000060000000005,-14.025116,-239.10065,8.81505160130844,0.24319277569706702,242.20534925441095,44.43493749999749,26.047647120914007
14:25:37:57,0.8190918,-0.71525574,8.466156,0.3341217,-0.05708313,-0.028244019,35.40039,-12.89978,-239.10065,8.535707326681614,0.3401374997714296,242.05105404980785,44.43493749999748,26.04764726085546
14:25:37:58,0.69459534,-0.6482239,7.9537964,0.42253113,-0.056030273,-0.019714355,34.65042,-13.649749499999999,-239.85062,8.01033919903108,0.42668560217635354,242.72724879356826,44.43493749999747,26.047647400796915
14:25:37:59,0.60121155,-0.54766846,7.2929993,0.44703674,-0.04536438,-0.0048065186,33.90045,-14.399719,-240.60059,7.338203789738512,0.4493582941302677,243.4034435373287,44.43493749999746,26.047647540738367
14:25:37:60,0.6036072,-0.3992157,6.6537476,0.39909363,-0.030456543,0.014373779,34.350584999999995,-13.949584999999999,-241.04996,6.692986773595484,0.40051208725933424,243.88524324380916,44.43493749999745,26.047647680679823
14:25:37:61,0.73049927,-0.20768738,6.323349,0.29364014,-0.022994995,0.031417847,34.80072,-13.499451,-241.49933,6.368791549978913,0.29621003143780433,244.36704295028963,44.434937499997446,26.047647820621275
14:25:37:62,0.97232056,0.03413391,6.387985,0.15835571,-0.030456543,0.025024414,33.675385,-13.499451,-240.974425,6.461650312067003,0.16318809146858218,243.69248472532473,44.43493749999744,26.04764796056273
14:25:37:63,1.1255493,0.19932556,6.5914917,0.031585693,-0.017669678,-0.017593384,32.55005,-13.499451,-240.44952,6.689869560519749,0.040241777837036335,243.01792650035986,44.43493749999743,26.047648100504183
14:25:37:64,1.1734314,0.24720764,6.8668365,-0.071746826,0.03453064,-0.06552124,33.0001835,-13.574982,-241.049955,6.970760100987021,0.1031164634334473,243.67705564720862,44.434937499997424,26.04764824044564
14:25:37:65,1.2261047,0.29508972,7.1804657,-0.14738464,0.070739746,-0.12944031,33.450317,-13.650513,-241.65039,7.2903702475997925,0.20852131216010084,244.33618479405737,44.43493749999742,26.04764838038709
14:25:37:66,0.8119049,0.39804077,7.5539703,-0.20703125,0.070739746,-0.19654846,34.0499885,-13.500214,-241.875455,7.607896773386734,0.2941043135846168,244.63388451149348,44.43493749999741,26.047648520328547
14:25:37:67,0.6969757,0.34298706,7.7646484,-0.24325562,0.04197693,-0.24768066,34.64966,-13.349915,-242.10052,7.803408231365349,0.3496871010658599,244.93158422892955,44.4349374999974,26.04764866027
14:25:37:68,0.21574402,0.2591858,8.279404,-0.25604248,-0.016601562,-0.27111816,34.0499885,-12.5999455,-242.77496,8.286268964757504,0.3732806184456619,245.4769257558562,44.434937499997396,26.047648800211455
14:25:37:69,-0.011703491,0.24003601,8.391937,-0.25816345,-0.051757812,-0.26046753,33.450317,-11.849976,-243.4494,8.395377351243202,0.3703654576269644,246.02226728278288,44.43493749999739,26.047648940152907
14:25:37:70,-0.27267456,0.2591858,8.526016,-0.2688141,-0.069869995,-0.2071991,33.22525,-12.30011,-242.624665,8.53431177816049,0.34651739292699296,245.1982718230531,44.43493749999738,26.047649080094363
14:25:37:71,-0.34449768,0.45550537,8.954575,-0.2975769,-0.10076904,-0.12944031,33.000183,-12.750244,-241.79993,8.972768648764394,0.3397958279452938,244.3742763633233,44.43493749999737,26.047649220035815
14:25:37:72,-0.32772827,0.54649353,9.15329,-0.32633972,-0.14230347,-0.062332153,32.849884,-12.825012000000001,-242.32483,9.175444339179933,0.3614321343230769,244.87745824022772,44.43493749999736,26.04764935997727
14:25:37:73,-0.2511139,0.68774414,9.816483,-0.3359375,-0.06668091,0.031417847,32.699585,-12.89978,-242.84973,9.84374871084012,0.3439293950432174,245.38064011713215,44.43493749999735,26.047649499918723
14:25:37:74,-0.24633789,0.7428131,9.929016,-0.33166504,-0.03152466,0.06336975,32.849884,-11.699676499999999,-242.700195,9.959809856911791,0.3391330537729693,245.19549931402798,44.434937499997346,26.04764963986018
14:25:37:75,-0.22239685,0.9056244,10.055908,-0.33380127,0.05050659,0.109176636,33.000183,-10.499573,-242.55066,10.099054491249628,0.3548150804789975,245.01035851092382,44.43493749999734,26.04764977980163
14:25:37:76,-0.21760559,0.96307373,10.338425,-0.33805847,0.14212036,0.1496582,32.0999145,-10.799408,-242.700195,10.385465549643905,0.39607991957748945,245.05374357464444,44.43493749999733,26.047649919743087
14:25:37:77,-0.40673828,0.97984314,10.975281,-0.33166504,0.20283508,0.19013977,31.199646,-11.099243,-242.84973,11.026437395477446,0.43277811933190535,245.09712863836504,44.434937499997325,26.04765005968454
14:25:37:78,-0.51927185,0.8601227,11.422989,-0.25604248,0.1889801,0.25405884,31.575012,-10.349273499999999,-243.149565,11.46708908168846,0.4072064880901409,245.4108690061646,44.43493749999732,26.047650199625995
14:25:37:79,-0.66052246,0.78590393,11.609741,-0.16442871,0.113357544,0.31051636,31.950378,-9.599304,-243.4494,11.655042728125663,0.36919797301938917,245.7246093739642,44.43493749999731,26.047650339567447
14:25:37:80,-0.7419281,0.6207123,11.590591,-0.08665466,0.010025024,0.3776245,31.200409,-9.449767999999999,-243.4494,11.630887360568062,0.38756908314023986,245.62359130842418,44.434937499997304,26.047650479508903
14:25:37:81,-0.7634735,0.4291687,11.504395,-0.067489624,-0.02619934,0.4234314,30.45044,-9.300232,-243.4494,11.5376852910056,0.42957584344334004,245.52257324288416,44.4349374999973,26.047650619450355
14:25:37:82,-0.5743408,0.39086914,11.640869,-0.07493591,-0.067733765,0.5256958,30.599975999999998,-9.750366249999999,-244.1246,11.661581244167104,0.5353123645744076,246.22841258897307,44.43493749999729,26.04765075939181
14:25:37:83,-0.19845581,0.44831848,12.208298,-0.12287903,-0.11141968,0.6226349,30.749512,-10.2005005,-244.7998,12.218138738156325,0.644350696285069,246.93425193506195,44.43493749999728,26.047650899333263
14:25:37:84,0.15829468,0.5656433,12.907394,-0.15057373,-0.17852783,0.6759033,31.724548499999997,-9.750366249999999,-245.249935,12.920751890652,0.7151153090247138,247.48756941580984,44.43493749999727,26.04765103927472
14:25:37:85,0.35940552,0.5225525,13.491592,-0.13246155,-0.24884033,0.6769562,32.699585,-9.300232,-245.70007,13.506490592952957,0.7333057130428968,248.04088689655777,44.43493749999726,26.04765117921617
14:25:37:86,0.42404175,0.24720764,13.731003,-0.055770874,-0.26161194,0.6556549,31.274414,-9.375,-246.150205,13.739773157116765,0.70812043144602,248.31043008340816,44.434937499997254,26.047651319157627
14:25:37:87,0.33306885,0.012573242,13.50116,0.045440674,-0.18811035,0.63861084,29.849243,-9.449768,-246.60034,13.505273573343663,0.6672886658682301,248.57997327025856,44.43493749999725,26.04765145909908
14:25:37:88,0.20857239,-0.07121277,12.991196,0.12852478,-0.04963684,0.6194458,30.449676500000002,-7.949829,-246.45004,12.993065350828395,0.6345829607678369,248.45648003823283,44.43493749999724,26.047651599040535
14:25:37:89,0.04336548,-0.05206299,12.548264,0.17326355,0.13679504,0.61091614,31.05011,-6.44989,-246.29974,12.548446937110558,0.6495780713968905,248.33298680620706,44.43493749999723,26.047651738981987
14:25:37:90,-0.08113098,0.05567932,11.418213,0.14556885,0.34025574,0.6226349,30.5999755,-7.2746275,-246.37451,11.41863698240558,0.7243193200455722,248.3758531935868,44.434937499997226,26.047651878923443
14:25:37:91,-0.021270752,0.17298889,11.066254,0.002822876,0.5884552,0.5778961,30.149841,-8.099365,-246.44928,11.067626448045223,0.8247735406953605,248.41871958096658,44.43493749999722,26.04765203635758
14:25:37:92,-0.04043579,0.20411682,11.006409,-0.09411621,0.6332092,0.51397705,30.224609,-8.3999635,-247.49984999999998,11.008375802297122,0.8209653828731798,249.4801298327006,44.43493749999721,26.047652193791713
14:25:37:93,-0.023666382,0.029342651,11.195541,-0.16015625,0.52241516,0.4287567,30.299377,-8.700562,-248.55042,11.195604466552295,0.694550164931791,250.54154008443464,44.4349374999972,26.04765235122585
14:25:37:94,-0.2511139,-0.2866974,11.442154,-0.16229248,0.34025574,0.34672546,29.850006,-8.2504275,-249.00055,11.448499541409607,0.5121829382942286,250.91996787267652,44.43493749999719,26.047652508659986
14:25:37:95,-0.44265747,-0.6817322,11.497208,-0.12820435,0.12187195,0.2892151,29.400635,-7.800293,-249.45068,11.525905440507815,0.33901991331444675,251.29839566091837,44.43493749999718,26.047652666094123
14:25:37:96,-0.5527954,-0.9858093,11.592987,-0.08026123,-0.13804626,0.25405884,29.9255375,-7.800293,-249.97558500000002,11.64795047690351,0.30007420602785256,251.88169102983272,44.434937499997176,26.047652823528257
14:25:37:97,-0.536026,-1.2707062,11.786911,-0.02168274,-0.36068726,0.23274231,30.45044,-7.800293,-250.50049,11.867320213144811,0.4298074261856713,252.4649863987471,44.43493749999716,26.047652980962393
14:25:37:98,-0.53842163,-1.6801147,12.0143585,0.057144165,-0.5076904,0.22636414,30.075073500000002,-7.949829,-251.25046,12.143207707328825,0.5587984625279913,253.1693761663367,44.434937499997154,26.04765313839653
14:25:37:99,-0.42590332,-1.9865723,12.102951,0.16900635,-0.5673523,0.24552917,29.699707,-8.099365,-252.00043,12.27229750493017,0.6408871600964567,253.87376593392625,44.43493749999715,26.047653295830663
14:25:38:00,-0.32772827,-2.139801,11.770157,0.29045105,-0.5343323,0.27215576,28.4996035,-8.024597,-251.325225,11.967570761988716,0.6662894093189311,253.06568123224793,44.43493749999714,26.0476534532648
14:25:38:01,-0.16253662,-2.266693,11.224274,0.3756714,-0.45230103,0.2945404,27.2995,-7.949829,-250.65002,11.452014763183202,0.6576163545329304,252.2575965305696,44.43493749999713,26.047653610698937
14:25:38:02,0.11758423,-2.1733246,10.520386,0.4118805,-0.34577942,0.2934723,27.600098,-7.49969475,-252.075195,10.743169339496882,0.6126458556483316,253.69307885615444,44.43493749999712,26.04765376813307
14:25:38:03,0.31152344,-2.0895233,9.756638,0.38632202,-0.23712158,0.24020386,27.900696,-7.0495605,-253.50037,9.982742085116511,0.5130002350852058,255.12856118173926,44.43493749999711,26.047653925567207
14:25:38:04,0.28518677,-2.0584106,9.098221,0.29789734,-0.12313843,0.16456604,28.050232,-7.57446275,-253.125,9.332524366794678,0.36192247739429245,254.78770816397224,44.434937499997105,26.047654083001344
14:25:38:05,0.09843445,-2.1206512,8.674454,0.16900635,-0.030456543,0.097457886,28.199768,-8.099365,-252.74963,8.930453686746505,0.1974557846593063,254.44685514620522,44.4349374999971,26.047654240435477
14:25:38:06,-0.026062012,-2.1565704,8.672058,0.04437256,0.023864746,0.036743164,27.3750305,-7.42492665,-253.350065,8.936222080610444,0.06235792077458173,254.93535301560416,44.43493749999708,26.047654397869614
14:25:38:07,-0.14099121,-2.2068481,8.85881,-0.036590576,0.026000977,-0.018661499,26.550293,-6.7504883,-253.9505,9.130639171157235,0.04861247372736041,255.42385088500308,44.434937499997076,26.04765455530375
14:25:38:08,-0.22479248,-2.3121948,9.21315,-0.057891846,-0.009155273,-0.064453125,27.0751955,-7.5004576499999995,-254.32510000000002,9.501521424209471,0.0871176800612704,255.87371005026006,44.43493749999707,26.047654712737888
14:25:38:09,-0.35168457,-2.2595215,9.464539,-0.008895874,-0.069869995,-0.10281372,27.600098,-8.250427,-254.6997,9.736869000261805,0.1246258953659403,256.323569215517,44.43493749999706,26.04765487017202
14:25:38:10,-0.5072937,-2.2283936,9.454956,0.0869751,-0.14762878,-0.12730408,27.3750305,-8.550262499999999,-254.85000000000002,9.727244105938569,0.213460191813239,256.4588984934584,44.43493749999705,26.047655027606158
14:25:38:11,-0.50968933,-2.1781158,9.150894,0.19244385,-0.22114563,-0.14115906,27.149963,-8.850098,-255.0003,9.42034142961716,0.32537041243942727,256.59422777139974,44.43493749999704,26.047655185040295
14:25:38:12,-0.5456085,-2.0847473,8.710358,0.23825073,-0.25842285,-0.14541626,25.8750915,-9.149933,-256.12487500000003,8.972970323604862,0.3803835806393896,257.5949758794358,44.434937499997034,26.047655342474428
14:25:38:13,-0.6198273,-2.067978,8.389542,0.31282043,-0.33406067,-0.15501404,24.60022,-9.449768,-257.24945,8.662859450555185,0.48320027448601,258.5957239874719,44.43493749999703,26.047655499908565
14:25:38:14,-0.60546875,-2.0991058,8.037598,0.3383789,-0.30955505,-0.13050842,25.19989,-9.9746705,-256.949615,8.329214799512869,0.4768197318029203,258.3762954203006,44.43493749999702,26.047655657342702
14:25:38:15,-0.54800415,-2.0631866,7.896332,0.34370422,-0.29037476,-0.11985779,25.79956,-10.499573,-256.64978,8.179798686340684,0.46563503080690793,258.1568668531293,44.434937499997005,26.04765581477684
14:25:38:16,-0.50491333,-1.9243317,7.1756744,0.3053589,-0.15615845,-0.08895874,25.349426,-10.424805,-257.099915,7.446361061434769,0.354320725809259,258.55731805935443,44.434937499997,26.047655972210972
14:25:38:17,-0.46180725,-1.8261719,6.6896515,0.22439575,-0.032592773,-0.066589355,24.899292,-10.350037,-257.55005,6.949791862779376,0.23632579983829116,258.95776926557954,44.43493749999699,26.04765612964511
14:25:38:18,-0.33970642,-1.6537781,6.596283,0.11148071,0.05795288,-0.0697937,24.074554499999998,-11.2503055,-257.70034999999996,6.8089156164486155,0.1437276784829161,259.0697293561782,44.434937499996984,26.047656287079246
14:25:38:19,-0.2750702,-1.5173187,6.7279663,0.011352539,0.117614746,-0.0974884,23.249817,-12.150574,-257.85065,6.90242350093309,0.15318647705640023,259.1816894467768,44.43493749999697,26.04765644451338
14:25:38:20,-0.27745056,-1.4550629,6.876404,-0.060028076,0.13040161,-0.13690186,24.1500855,-11.550140500000001,-258.300025,7.034139522885278,0.1983685183448056,259.68568351347176,44.43493749999696,26.047656601947516
14:25:38:21,-0.42111206,-1.5484467,7.0296326,-0.10050964,0.08566284,-0.17417908,25.050354,-10.949707,-258.7494,7.2104616385361275,0.21858330631464426,260.1896775801668,44.434937499996956,26.047656759381653
14:25:38:22,-0.52885437,-1.5580139,7.2307434,-0.12820435,0.007888794,-0.20401001,25.050354,-11.100006,-259.12476,7.415574446656501,0.24107814627190294,260.56935917446026,44.43493749999695,26.047656916815786
14:25:38:23,-0.5623627,-1.708847,7.6138153,-0.14950562,-0.06561279,-0.21891785,25.050354,-11.250305,-259.50012,7.823464277305442,0.273097040759857,260.9490407687538,44.43493749999694,26.047657074249923
14:25:38:24,-0.5336304,-1.6274414,7.996887,-0.13778687,-0.08691406,-0.22851562,24.3751525,-11.925506500000001,-259.27506,8.178235054399398,0.28063974051097057,260.69295995756454,44.43493749999693,26.04765723168406
14:25:38:25,-0.615036,-1.4766083,8.099838,-0.11222839,-0.09863281,-0.23596191,23.699951,-12.600708,-259.05,8.256271372669923,0.2792877829432148,260.43687914637525,44.43493749999692,26.047657389118193
14:25:38:26,-0.67489624,-1.4526672,8.140549,-0.102645874,-0.11141968,-0.23703003,23.249817,-11.925506500000001,-259.649665,8.296641787501915,0.28130722646659323,260.9625681917822,44.43493749999691,26.04765754655233
14:25:38:27,-1.0388184,-1.490982,8.269836,-0.09837341,-0.093307495,-0.21147156,22.799683,-11.250305,-260.24933,8.467134016855914,0.25120477126646445,261.48825723718915,44.434937499996906,26.047657703986467
14:25:38:28,-1.2231598,-1.5652008,8.48291,-0.12394714,0.00044250488,-0.1486206,22.6501465,-11.700439500000002,-259.94949499999996,8.712389770249992,0.19352305306890033,261.19705100538624,44.43493749999689,26.047657861420603
14:25:38:29,-1.3644257,-1.5149231,8.631363,-0.1484375,0.14318848,-0.052749634,22.50061,-12.150574,-259.64966,8.86888249598015,0.21288296338151244,260.90584477358334,44.434937499996884,26.047658018854737
14:25:38:30,-1.0747223,-1.2778931,8.992874,-0.1591034,0.28805542,0.03567505,22.800445000000003,-11.550140500000001,-259.94949499999996,9.14657430828728,0.3310023052418803,261.20386194834236,44.43493749999688,26.047658176288873
14:25:38:31,-0.828125,-1.016922,9.004852,-0.13778687,0.39352417,0.08467102,23.10028,-10.949707,-260.24933,9.099850598312754,0.4254593700301196,261.5018791231014,44.43493749999687,26.04765833372301
14:25:38:32,-0.6629181,-0.7511749,8.813309,-0.13352966,0.43719482,0.11024475,22.800445000000003,-11.249542,-260.69946500000003,8.870069879498054,0.470237584245571,261.9366658617281,44.43493749999686,26.047658491157144
14:25:38:33,-0.5072937,-0.49978638,8.662476,-0.15270996,0.41589355,0.10810852,22.50061,-11.549377,-261.1496,8.691698555188692,0.45604301212867465,262.37145260035487,44.43493749999685,26.04765864859128
14:25:38:34,-0.4665985,-0.40161133,8.590652,-0.17826843,0.37327576,0.09213257,23.1002805,-12.075042499999999,-261.89957000000004,8.612682950491712,0.4237957486726919,263.1944820530774,44.43493749999684,26.047658806025417
14:25:38:35,-0.70362854,-0.36810303,8.7798,-0.2421875,0.26461792,0.05911255,23.699951,-12.600708,-262.64954,8.81563843422572,0.3635542907309428,264.01751150580003,44.434937499996835,26.047658963459554
14:25:38:36,-0.93107605,-0.51174927,9.220322,-0.32847595,0.15916443,0.046325684,23.774718999999997,-12.30011,-262.72506999999996,9.281332216331506,0.36793455192968116,264.08538282858785,44.43493749999683,26.047659120893687
14:25:38:37,-0.9550171,-0.6937103,10.173218,-0.4509735,0.06329346,0.06336975,23.849487,-11.999512,-262.8006,10.241467478693789,0.4597813447673623,264.15325415137573,44.43493749999681,26.047659278327824
14:25:38:38,-0.95980835,-0.9283447,11.185974,-0.45736694,0.09950256,0.099594116,23.299662,-12.199910666666666,-263.00048999999996,11.26539259322212,0.4785439010094462,264.3136077269334,44.434937499996806,26.04765943576196
14:25:38:39,-0.9693756,-1.0456543,11.571442,-0.4328766,0.15383911,0.13475037,22.749837,-12.400309333333333,-263.20038,11.6589601563925,0.478754931889259,264.47396130249115,44.4349374999968,26.047659593196094
14:25:38:40,-0.56954956,-1.0289001,12.23941,-0.33273315,0.3093567,0.22102356,22.200012,-12.600708,-263.40027,12.295778920636796,0.5052369058361493,264.6343148780488,44.43493749999679,26.04765975063023
14:25:38:41,-0.24154663,-0.7631378,12.402222,-0.25071716,0.3381195,0.20718384,22.349548,-9.750366,-262.5,12.428026175283717,0.4691577923853138,263.6300854093445,44.434937499996785,26.047659908064368
14:25:38:42,-0.05000305,-0.6553955,12.189133,-0.19744873,0.328537,0.14007568,22.650146499999998,-10.95047,-262.57477,12.206842624451195,0.40809773029885293,263.7801460528643,44.43493749999677,26.0476600654985
14:25:38:43,0.005065918,-0.6075134,12.179565,-0.17614746,0.3104248,0.055908203,22.950745,-12.150574,-262.64954,12.194707941723317,0.3612716585648268,263.93020669638423,44.434937499996764,26.047660222932638
14:25:38:44,-0.06437683,-0.6338501,12.167587,-0.171875,0.3093567,-0.025039673,22.950745,-12.150574,-262.64954,12.184255567250707,0.35478101511190946,263.93020669638423,44.43493749999676,26.047660380366775
14:25:38:45,-0.18647766,-0.664978,12.339981,-0.16654968,0.31149292,-0.087890625,22.950745,-12.150574,-262.64954,12.35929208079994,0.36399367725431636,263.93020669638423,44.43493749999675,26.04766053780091
14:25:38:46,-0.2511139,-0.74398804,12.557846,-0.16442871,0.29551697,-0.11665344,22.950745,-12.150574,-262.64954,12.58237149960818,0.3577360832989574,263.93020669638423,44.434937499996735,26.047660695235045
14:25:38:47,-0.21281433,-0.9858093,12.744598,-0.12927246,0.22413635,-0.16673279,22.799683,-12.449646,-265.04974,12.784439295355265,0.3078121108191785,266.3197024339232,44.43493749999673,26.047660852669182
14:25:38:48,-0.04522705,-1.3616943,12.610519,-0.051498413,0.101638794,-0.20401001,22.425079500000002,-11.8499755,-265.04974,12.683905009974854,0.23367202478579482,266.2614642129047,44.43493749999672,26.04766101010332
14:25:38:49,-0.13140869,-1.502945,12.25618,0.041168213,0.00044250488,-0.2263794,22.050476,-11.250305,-265.04974,12.348686574256897,0.23009269939861673,266.20322599188614,44.434937499996714,26.047661167537452
14:25:38:50,-0.06677246,-1.3712616,11.995209,0.106155396,-0.13911438,-0.23490906,22.200012,-12.2253415,-264.67514,12.073518786614365,0.2929232754370755,265.8876511545526,44.43493749999671,26.04766132497159
14:25:38:51,0.19898987,-1.36409,11.80368,0.08804321,-0.19877625,-0.24449158,22.349548,-13.200378,-264.30054,11.883905083719855,0.3271692789399136,265.572076317219,44.43493749999669,26.047661482405726
14:25:38:52,0.586853,-1.3832397,11.978455,0.037979126,-0.19343567,-0.28816223,22.349548,-12.2253415,-264.30054,12.07232921595042,0.3491378570688743,265.52718391105594,44.434937499996686,26.04766163983986
14:25:38:53,0.8310547,-1.2611389,12.270538,-0.007827759,-0.13272095,-0.36380005,22.349548,-11.250305,-264.30054,12.363139813531566,0.3873326745316835,265.4822915048929,44.43493749999668,26.047661797273996
14:25:38:54,0.9172516,-1.2276154,12.387863,-0.023803711,-0.08798218,-0.41174316,22.349548,-11.475372,-265.42511,12.48228904387287,0.42171069521854615,266.6115443444237,44.43493749999667,26.047661954708133
14:25:38:55,0.83584595,-1.5412598,12.536301,-0.053634644,0.12614441,-0.5651398,22.349548,-11.700439,-266.54968,12.65831596168418,0.5815256492669045,267.7407971839545,44.43493749999666,26.04766211214227
14:25:38:56,0.5126343,-1.8381348,12.6584015,-0.04298401,0.27633667,-0.6439667,21.0746765,-12.4504085,-266.17508,12.801432029414123,0.7020702892241338,267.30219523881414,44.43493749999665,26.047662269576403
14:25:38:57,0.16307068,-2.1493835,12.553055,0.02305603,0.38713074,-0.6769867,19.799805,-13.200378,-265.80048,12.736782612173805,0.7802004757427404,266.8635932936738,44.43493749999664,26.04766242701054
14:25:38:58,-0.05479431,-2.4773865,12.067032,0.117874146,0.46809387,-0.6631317,21.1502075,-13.650512500000001,-266.775515,12.318835479695904,0.8202132874878925,267.9638213858309,44.434937499996636,26.047662584444677
14:25:38:59,-0.22000122,-2.6737213,11.360748,0.21160889,0.5096283,-0.6205292,22.50061,-14.100647,-267.75055,11.67320783873821,0.8303949750212619,269.064049477988,44.43493749999662,26.04766274187881
14:25:38:60,-0.19845581,-2.7120209,10.606567,0.2872467,0.504303,-0.56300354,21.900177,-15.150451499999999,-267.300415,10.949598421679609,0.8085821965158654,268.6263938648166,44.434937499996614,26.047662899312947
14:25:38:61,-0.13619995,-2.680893,9.766205,0.32772827,0.45637512,-0.5054779,21.299744,-16.200256,-266.85028,10.128400555164374,0.7557724369812764,268.1887382516452,44.43493749999661,26.047663056747083
14:25:38:62,-0.09788513,-2.6162567,9.086258,0.31814575,0.35516357,-0.45220947,21.749878000000002,-15.525054749999999,-267.67502,9.455922221630951,0.6571539275207052,269.00682203680225,44.4349374999966,26.047663214181217
14:25:38:63,0.014633179,-2.5827332,8.760635,0.2787323,0.23905945,-0.3989563,22.200012,-14.8498535,-268.49976,9.133424906109148,0.5422243493308674,269.8249058219593,44.43493749999659,26.047663371615354
14:25:38:64,0.14152527,-2.5252686,8.64093,0.23931885,0.13040161,-0.34568787,22.049967333333335,-15.450032333333334,-268.6498066666667,9.003481669281864,0.4402024481088804,269.99698968488525,44.43493749999658,26.04766352904949
14:25:38:65,0.32588196,-2.3265533,8.741486,0.22120667,0.078201294,-0.31906128,21.899922666666665,-16.050211166666667,-268.7998533333333,9.051664310931463,0.3960403181886937,270.16907354781125,44.43493749999657,26.047663686483624
14:25:38:66,0.58206177,-2.1972656,8.933029,0.20735168,-0.07093811,-0.2732544,21.749878,-16.65039,-268.9499,9.217688383530867,0.3502783204375551,270.3411574107372,44.434937499996565,26.04766384391776
14:25:38:67,0.6323395,-2.0584106,9.069489,0.22653198,-0.14337158,-0.2583313,21.299743999999997,-16.950225500000002,-268.49976000000004,9.321616713991926,0.37229989051046847,269.8766194234821,44.43493749999656,26.047664001351897
14:25:38:68,0.69459534,-1.9674225,9.012039,0.25315857,-0.16255188,-0.24342346,20.84961,-17.250061,-268.04962,9.250408689208113,0.38699787613674436,269.412081436227,44.43493749999654,26.047664158786034
14:25:38:69,0.7831726,-1.7734985,8.746277,0.26913452,-0.1252594,-0.22531128,21.749878,-18.15033,-269.2505,8.958572297616513,0.37267744772018174,270.7366311055336,44.434937499996536,26.047664316220168
14:25:38:70,0.883728,-1.5388641,8.42067,0.27233887,-0.07093811,-0.21466064,21.350097666666667,-18.200175333333334,-269.45038666666665,8.605623809181575,0.35394895949622257,270.90760415848456,44.43493749999653,26.047664473654304
14:25:38:71,0.9603424,-1.2371979,8.133362,0.2680664,-0.03152466,-0.22319031,20.95031733333333,-18.250020666666668,-269.65027333333336,8.28278296178562,0.3502389376910735,271.0785772114356,44.43493749999653,26.04766451563674
14:25:38:72,0.97232056,-0.9953766,7.939438,0.259552,0.004699707,-0.24662781,20.550537,-18.299866,-269.85016,8.060450210941712,0.3580706698618053,271.2495502643865,44.43493749999652,26.04766455761918
14:25:38:73,0.7640228,-0.8708801,7.5467834,0.23931885,0.08566284,-0.2689972,20.32547,-18.299866,-269.474795,7.635188450458273,0.37009610607250126,270.85921464623243,44.43493749999652,26.047664599601614
14:25:38:74,0.5988159,-0.7056732,7.1804657,0.19670105,0.14530945,-0.2785797,20.100403,-18.299866,-269.09943,7.239864834108959,0.3706923098507642,270.4688790280783,44.43493749999652,26.04766464158405
14:25:38:75,0.45516968,-0.44711304,6.991333,0.14875793,0.14530945,-0.29455566,20.249939,-18.600464,-268.20068,7.020386501113621,0.36056455016435407,269.6064577175061,44.434937499996515,26.047664683566484
14:25:38:76,0.3091278,-0.32499695,6.9266815,0.10722351,0.08352661,-0.31799316,20.200093666666668,-19.400533,-268.5002633333333,6.941188631400561,0.34582253466423757,269.9593146182993,44.434937499996515,26.047664725548923
14:25:38:77,0.29475403,-0.31782532,7.087097,0.0869751,-0.0027618408,-0.34249878,20.150248333333334,-20.200602,-268.79984666666667,7.100340608706271,0.35338040421916855,270.31217151909254,44.434937499996515,26.04766476753136
14:25:38:78,0.04576111,-0.29148865,6.979355,0.07206726,-0.03152466,-0.36061096,20.100403,-21.000671,-269.09943,6.98558916114398,0.36909044775521455,270.66502841988574,44.43493749999651,26.047664809513794
14:25:38:79,-0.30378723,-0.28430176,6.876404,0.031585693,-0.03578186,-0.3563385,21.299744,-19.799805,-268.35022,6.888980050999289,0.3595206865948048,269.9213810474301,44.43493749999651,26.04766485149623
14:25:38:80,-0.38519287,-0.08798218,6.8045807,-0.022750854,-0.04324341,-0.34143066,20.849609333333333,-20.499674666666667,-269.15029,6.8160423204311815,0.344909393108093,270.73632617052937,44.43493749999651,26.047664893478668
14:25:38:81,-0.31576538,-0.0017852783,6.948227,-0.083465576,-0.07519531,-0.35101318,20.399474666666666,-21.199544333333332,-269.95036,6.9553985799488265,0.36855269576645383,271.5512712936287,44.4349374999965,26.047664935461103
14:25:38:82,-0.318161,0.03173828,7.2929993,-0.13034058,-0.12953186,-0.37231445,19.94934,-21.899414,-270.75043,7.300004967816038,0.4151929903413574,272.366216416728,44.4349374999965,26.04766497744354
14:25:38:83,-0.48095703,-0.037704468,7.518051,-0.15483093,-0.16467285,-0.38830566,19.8745725,-21.824646,-270.300295,7.533513929781678,0.4493006231910023,271.90727547701823,44.4349374999965,26.047665019425974
14:25:38:84,-0.6365814,-0.006576538,7.6425476,-0.18359375,-0.18066406,-0.38935852,19.799805,-21.749878,-269.85016,7.669016426370711,0.46684711063830786,271.4483345373085,44.434937499996494,26.047665061408413
14:25:38:85,-0.7874298,0.026947021,7.841263,-0.2230072,-0.20303345,-0.37338257,19.4252015,-21.524811,-269.85016,7.880747253086969,0.4799680579481799,271.40367311851423,44.434937499996494,26.047665103390848
14:25:38:86,-0.87361145,-0.020935059,7.9537964,-0.26242065,-0.22433472,-0.34568787,19.050598,-21.299744,-269.85016,8.001656854359565,0.4885598915271676,271.35901169972,44.434937499996494,26.047665145373283
14:25:38:87,-0.93826294,-0.004180908,8.233917,-0.3167572,-0.22219849,-0.30308533,20.175171,-21.524811,-270.37506,8.287203628936492,0.49149568662535487,271.98204124033066,44.434937499996494,26.04766518735572
14:25:38:88,-0.97416687,0.14665222,8.667267,-0.37002563,-0.2232666,-0.25621033,21.299744,-21.749878,-270.89996,8.723074298292177,0.5024048912293408,272.60507078094133,44.43493749999649,26.047665229338158
14:25:38:89,-0.7084198,0.25439453,9.474121,-0.39878845,-0.26374817,-0.2263794,20.624541999999998,-22.200012,-270.30029,9.503975163717914,0.5290018504467744,271.99467748853147,44.43493749999649,26.047665271320593
14:25:38:90,-0.6365814,0.29031372,10.292938,-0.3678894,-0.31381226,-0.2263794,19.94934,-22.650146,-269.70062,10.316689905521548,0.5339179505345626,271.38428419612165,44.43493749999649,26.04766531330303
14:25:38:91,-0.70602417,0.21847534,10.731064,-0.29864502,-0.31488037,-0.22319031,19.34967,-23.0247495,-269.70062,10.756483448363053,0.48800861658379907,271.37330940694255,44.43493749999648,26.047665355285464
14:25:38:92,-0.9550171,0.14665222,11.0494995,-0.23046875,-0.23179626,-0.18696594,18.75,-23.399353,-269.70062,11.091663704576675,0.3765655501989444,271.36233461776345,44.43493749999648,26.047665397267902
14:25:38:93,-1.0388184,0.13468933,11.037521,-0.1633606,-0.10395813,-0.13050842,18.2998655,-23.324585,-270.149995,11.087116609345976,0.2335089422620755,271.7723003151349,44.43493749999648,26.047665439250338
14:25:38:94,-1.0268402,0.24960327,10.944153,-0.11755371,0.019607544,-0.07191467,17.849731,-23.249817,-270.59937,10.995052863726475,0.13919428967340913,272.1822660125064,44.43493749999647,26.047665481232773
14:25:38:95,-1.180069,0.31185913,10.908249,-0.104766846,0.08566284,-0.041030884,18.1495665,-22.9499815,-270.5246,10.97632521419288,0.1414133926453742,272.1026399597164,44.43493749999647,26.04766552321521
14:25:38:96,-1.227951,0.3022766,10.874725,-0.06428528,0.2550354,0.064437866,18.449402,-22.650146,-270.44983,10.948007975286352,0.27079123149111084,272.02301390692634,44.43493749999647,26.047665565197647
14:25:38:97,-1.2471161,0.3381958,10.85318,-0.022750854,0.30297852,0.13793945,19.2749025,-23.474884,-270.300295,10.929830331639044,0.3336778038848586,272.00409035296593,44.434937499996465,26.047665607180083
14:25:38:98,-1.1824646,0.4076233,10.800507,0.033721924,0.27954102,0.21569824,20.100403,-24.299622,-270.15076,10.872687374426114,0.35469152902205003,271.9851667990056,44.434937499996465,26.047665649162518
14:25:38:99,-0.7850342,0.4219818,10.644882,0.09762573,0.19111633,0.28068542,19.2749025,-24.074554499999998,-270.975495,10.682128071158148,0.35332780778093054,272.7263973340721,44.434937499996465,26.047665691144953
14:25:39:00,-0.6653137,0.4363556,10.620941,0.1572876,0.08885193,0.3169098,18.449402,-23.849487,-271.80023,10.650701209523252,0.3647819566734694,273.4676278691386,44.43493749999646,26.047665733127392
14:25:39:01,-0.47618103,0.44354248,10.520386,0.18817139,-0.007019043,0.33607483,18.899535999999998,-24.074554499999998,-271.1998,10.540493342054365,0.38523243676863045,272.9220112965734,44.43493749999646,26.047665775109827
14:25:39:02,-0.026062012,0.3166504,10.838806,0.18391418,-0.15509033,0.33714294,19.34967,-24.299622,-270.59937,10.843461726308885,0.41417725439288056,272.37639472400815,44.43493749999646,26.047665817092263
14:25:39:03,0.15589905,0.3022766,11.102173,0.18391418,-0.19450378,0.3254242,18.5249325,-24.224853500000002,-270.824435,11.107381373601406,0.4213751962147283,272.5373401524845,44.43493749999645,26.047665859074698
14:25:39:04,0.2636261,0.043701172,11.578613,0.19563293,-0.1913147,0.28707886,17.700195,-24.150085,-271.0495,11.581696227962656,0.3965952969909937,272.6982855809608,44.43493749999645,26.047665901057137
14:25:39:05,0.35940552,-0.14782715,12.033524,0.20628357,-0.1359253,0.24446106,18.0000305,-24.974822500000002,-271.1998,12.039797550318676,0.34754828195282234,272.9428644267818,44.43493749999645,26.047665943039572
14:25:39:06,0.22532654,-0.2795105,12.459686,0.22439575,-0.04536438,0.19865417,18.299866,-25.79956,-271.3501,12.464857535801787,0.3031086584860878,273.18744327260276,44.434937499996444,26.047665985022007
14:25:39:07,0.002670288,-0.54048157,12.624878,0.2552948,0.08566284,0.16989136,18.450165,-25.79956,-272.0253,12.636442219740163,0.3183969711956368,273.8682251479321,44.434937499996444,26.047666027004443
14:25:39:08,-0.31097412,-0.8110199,12.474045,0.2915039,0.24864197,0.1688385,18.600464,-25.79956,-272.7005,12.50424955139375,0.418692956762997,274.5490070232615,44.434937499996444,26.04766606898688
14:25:39:09,-0.48814392,-0.9283447,12.050278,0.32026672,0.42121887,0.19760132,18.150329499999998,-26.4747615,-271.875,12.095838468082116,0.5648383751564493,273.76465777576567,44.43493749999644,26.047666110969317
14:25:39:10,-0.61743164,-0.90200806,11.516373,0.3373108,0.5426483,0.23168945,17.700195,-27.149963,-271.0495,11.568132409577055,0.6796512006395873,272.98030852826986,44.43493749999644,26.047666152951752
14:25:39:11,-0.8712158,-0.7799072,10.822052,0.32772827,0.59059143,0.24873352,18.75,-27.075195,-272.85003500000005,10.885039352316806,0.7197724780222069,274.8321136777066,44.43493749999644,26.047666194934187
14:25:39:12,-0.97177124,-0.6625824,10.508408,0.29789734,0.5565033,0.26257324,19.799805,-27.000427,-274.65057,10.5740244691482,0.6836544847026627,276.6839188271434,44.43493749999643,26.047666236916626
14:25:39:13,-0.97177124,-0.66737366,10.503616,0.24357605,0.43826294,0.27322388,20.249938999999998,-27.9754635,-274.875635,10.569563662725578,0.5710122462025666,277.0385884397897,44.43493749999643,26.04766627889906
14:25:39:14,-1.017273,-0.957077,10.661636,0.17858887,0.3104248,0.26896667,20.700073,-28.9505,-275.1007,10.752735602485258,0.44788459508427597,277.39325805243595,44.43493749999643,26.047666320881497
14:25:39:15,-1.0388184,-1.0839691,10.687973,0.117874146,0.22520447,0.28282166,20.700073,-28.800201,-274.57504,10.792909687691376,0.380262355444719,276.85629443656785,44.43493749999642,26.047666362863932
14:25:39:16,-0.8855896,-1.3066254,10.889084,0.06460571,0.13252258,0.3030548,20.700073,-28.649902,-274.04938,11.002894584363213,0.33701386288623275,276.31933082069975,44.43493749999642,26.04766640484637
14:25:39:17,-0.6030731,-1.4574585,11.200333,0.041168213,0.02281189,0.31263733,20.625304999999997,-29.474639500000002,-274.499515,11.310850620269674,0.31616025081675647,276.8478830540082,44.43493749999642,26.047666446828806
14:25:39:18,-0.49293518,-1.7112427,11.382294,0.047561646,-0.093307495,0.30838013,20.550537,-30.299377,-274.94965,11.52076183993146,0.3256788347010306,277.3764352873167,44.434937499996416,26.04766648881124
14:25:39:19,-0.42829895,-1.897995,11.367935,0.0635376,-0.19770813,0.30519104,20.9999085,-29.6249385,-274.724575,11.5332463415476,0.3691437418921504,277.1152548898358,44.434937499996416,26.047666530793677
14:25:39:20,-0.3468933,-2.1517792,11.391876,0.07632446,-0.23712158,0.307312,21.44928,-28.9505,-274.4995,11.59850539882245,0.39559162306599466,276.8540744923549,44.434937499996416,26.047666572776116
14:25:39:21,-0.2678833,-2.3433075,11.320038,0.0912323,-0.20942688,0.30519104,20.7748415,-29.399871500000003,-274.34997,11.563135899202221,0.38121453477812994,276.7029252424484,44.434937499996416,26.04766661475855
14:25:39:22,-0.18887329,-2.6114655,10.965698,0.108291626,-0.14125061,0.3019867,20.100403,-29.849243,-274.20044,11.273950408112041,0.3505349883592021,276.5517759925419,44.43493749999641,26.047666656740986
14:25:39:23,0.07449341,-2.776657,10.592209,0.10295105,-0.09437561,0.2934723,20.0248715,-29.774475000000002,-274.34997,10.950354554235377,0.3250102541863327,276.6865308877873,44.43493749999641,26.04766669872342
14:25:39:24,0.26123047,-2.9825592,10.170822,0.0869751,-0.08798218,0.25831604,19.94934,-29.699707,-274.4995,10.602335633983913,0.28641352715757684,276.8212857830327,44.43493749999641,26.04766674070586
14:25:39:25,0.24447632,-3.0184784,10.115753,0.052886963,-0.11567688,0.21250916,20.69931,-30.300140499999998,-273.52447,10.559329490044162,0.2476657313917357,275.97709440710344,44.4349374999964,26.047666782688296
