,ax,ay,az,gx,gy,gz,mx,my,mz,a_total,g_total,m_total,lat,long
17:31:15:30,1.1351166,0.05567932,10.046326,0.031585693,-0.16894531,0.07827759,52.950287,-51.6746525,-261.37466500000005,10.110403353998654,0.1888585578402378,271.6448383894099,44.4349375,26.0476015
17:31:15:31,1.235672,0.13948059,10.0056305,0.03691101,-0.13058472,0.06123352,53.100586,-52.049255,-261.1496,10.082607888294625,0.1488769146922682,271.52883964647003,44.43493749999999,26.047601566288055
17:31:15:32,1.2404633,0.20651245,10.022385,0.026260376,-0.1252594,0.034606934,53.025054999999995,-53.0998225,-261.07483,10.100970135530392,0.13257889921439886,271.6475940474397,44.43493749999999,26.047601632576114
17:31:15:33,1.1399078,0.17298889,9.96492,0.015609741,-0.10183716,0.010101318,52.949524,-54.15039,-261.00006,10.031397986071745,0.10352056702071238,271.7663484484094,44.43493749999998,26.04760169886417
17:31:15:34,1.0800476,0.08441162,9.838028,0.006011963,-0.07839966,0.009048462,53.025054999999995,-52.574920000000006,-261.299895,9.897495797859213,0.07914875268628314,271.764588396562,44.43493749999998,26.047601765152226
17:31:15:35,0.9794922,0.06764221,9.782974,-0.0067596436,-0.08052063,0.021820068,53.100586,-50.99945,-261.59973,9.83211883182412,0.08369814815586152,271.7628283447146,44.434937499999975,26.047601831440286
17:31:15:36,0.9794922,0.05807495,9.826065,-0.018478394,-0.11248779,0.050582886,52.950287,-51.899719000000005,-261.37466500000005,9.874934483524605,0.12471400202059243,271.6889904022572,44.434937499999975,26.04760189772834
17:31:15:37,1.096817,0.08680725,9.84761,-0.014221191,-0.16680908,0.0708313,52.799988,-52.799988,-261.1496,9.908883173306744,0.18178169463286142,271.61515245979984,44.43493749999997,26.047601964016398
17:31:15:38,1.1997681,0.06524658,9.955353,0.0124053955,-0.18278503,0.0750885,52.950287,-52.2750855,-261.524965,10.027599611302215,0.19799632284934565,271.90454214775735,44.43493749999997,26.047602030304457
17:31:15:39,1.2955322,-0.018539429,9.828461,0.037979126,-0.1870575,0.0665741,53.100586,-51.750183,-261.90033,9.913495499579627,0.20215101560166318,272.19393183571486,44.43493749999996,26.047602096592513
17:31:15:40,1.3170776,0.08201599,9.763809,0.043304443,-0.20729065,0.052719116,52.799988,-51.450348,-261.9751,9.852582718024673,0.2182292224996098,272.1509031059743,44.43493749999996,26.04760216288057
17:31:15:41,1.4415741,0.23524475,9.845215,0.024124146,-0.19664001,0.018630981,52.49939,-51.150513,-262.04987,9.952976156628647,0.19898839515421943,272.10787437623367,44.434937499999954,26.04760222916863
17:31:15:42,1.4607391,0.19932556,9.835632,-0.017410278,-0.102890015,-0.022918701,52.2743225,-51.225281499999994,-261.450195,9.945508847543303,0.10683978576478384,271.5011721731175,44.434937499999954,26.047602295456684
17:31:15:43,1.3960876,0.05807495,9.696777,-0.06642151,0.013214111,-0.0463562,52.049255,-51.30005,-260.85052,9.796934085438172,0.08206903800240638,270.8944699700013,44.43493749999995,26.047602361744744
17:31:15:44,1.2572327,0.06285095,9.603409,-0.12820435,0.08778381,-0.05380249,52.2743225,-51.97525,-261.299895,9.685558771962834,0.16442950035574122,271.49955596952805,44.43493749999995,26.0476024280328
17:31:15:45,1.254837,0.13948059,9.835632,-0.17507935,0.10270691,-0.057006836,52.49939,-52.65045,-261.74927,9.916336398639356,0.2108346923750963,272.1046419690548,44.43493749999994,26.047602494320856
17:31:15:46,1.3194733,0.024551392,10.185196,-0.18040466,0.12294006,-0.07298279,53.099823,-52.275085000000004,-262.124635,10.27033739069355,0.23018815638234583,272.51069232038935,44.43493749999994,26.047602560608915
17:31:15:47,1.2452545,-0.028121948,10.173218,-0.15270996,0.16448975,-0.08470154,53.700256,-51.89972,-262.5,10.249186020814218,0.23989906339257705,272.91674267172385,44.43493749999993,26.04760262689697
17:31:15:48,0.8262634,-0.059249878,9.912247,-0.10157776,0.13252258,-0.076171875,53.625488000000004,-51.224518,-262.049865,9.946801613746581,0.1835277365345348,272.3418983881312,44.43493749999993,26.047602693185027
17:31:15:49,0.66825867,-0.013763428,9.744659,-0.090927124,0.09524536,-0.06340027,53.55072,-50.549316,-261.59973,9.767555380352931,0.1461472364313259,271.76705410453854,44.434937499999926,26.047602759473087
17:31:15:50,0.6490936,-0.013763428,9.770996,-0.08558655,0.008956909,-0.041030884,53.9253235,-50.774383,-261.75003000000004,9.79254179289153,0.09533528833311533,272.0279437819104,44.434937499999926,26.047602825761142
17:31:15:51,0.66586304,-0.131073,9.730301,-0.09197998,-0.08584595,-0.014389038,54.299927,-50.99945,-261.90033,9.753938244112891,0.12663683613691692,272.2888334592822,44.43493749999992,26.0476028920492
17:31:15:52,0.62275696,-0.22923279,9.720718,-0.095184326,-0.116744995,0.012237549,54.450226,-50.624847,-262.125395,9.74334297552763,0.15112646154513015,272.4657908924505,44.43493749999992,26.047602958337258
17:31:15:53,0.65148926,-0.2220459,9.706345,-0.11329651,-0.114608765,0.04953003,54.600525,-50.250244,-262.35046,9.73071815934606,0.16859564663657903,272.64274832561887,44.43493749999991,26.047603024625314
17:31:15:54,0.7065582,-0.17895508,9.723114,-0.13246155,-0.11781311,0.09320068,53.5499575,-50.9254455,-262.049865,9.750394621123858,0.20028069769385418,272.2731055481835,44.43493749999991,26.04760309091337
17:31:15:55,0.83584595,-0.04008484,9.675232,-0.15377808,-0.11141968,0.11982727,52.49939,-51.600647,-261.74927,9.711352094345731,0.2245453575904915,271.90346277074815,44.434937499999904,26.04760315720143
17:31:15:56,1.0656891,-0.04008484,9.754242,-0.19212341,-0.095443726,0.11450195,53.025054999999995,-51.0749815,-261.8248,9.812366536509968,0.2431699119064562,271.979941524572,44.434937499999904,26.047603223489485
17:31:15:57,1.156662,0.024551392,9.960144,-0.20277405,-0.05921936,0.10810852,53.55072,-50.549316,-261.90033,10.027110164640115,0.23730086398663303,272.0564202783958,44.4349374999999,26.04760328977754
17:31:15:58,1.3194733,0.12750244,10.292938,-0.20170593,-0.04324341,0.10598755,53.55072,-50.549316,-261.524965,10.377949669056159,0.23192377079677604,271.69510600988025,44.4349374999999,26.0476033560656
17:31:15:59,1.4583435,0.18017578,10.664032,-0.16654968,-0.030456543,0.08999634,53.55072,-50.549316,-261.1496,10.764794822601816,0.19174393897333195,271.3337917413647,44.43493749999989,26.047603422353657
17:31:15:60,1.3793335,0.14425659,10.664032,-0.048309326,-0.02619934,0.028213501,53.175354,-50.39978,-261.75003000000004,10.753834170425202,0.06177538371946286,271.81083589104395,44.43493749999989,26.047603488641712
17:31:15:61,1.230896,0.09397888,10.429398,-0.007827759,-0.010223389,0.004776001,52.799988,-50.250244,-262.35046,10.502203560925015,0.013733232655110849,272.2878800407232,44.43493749999988,26.047603554929772
17:31:15:62,1.0848389,0.06764221,10.276169,0.04862976,0.018539429,-0.019714355,53.250122000000005,-50.5500795,-262.57552999999996,10.333494095613926,0.0556526709005926,272.648140239927,44.43493749999988,26.047603621217828
17:31:15:63,0.8478241,0.05328369,9.617767,0.06034851,0.05050659,-0.018661499,53.700256,-50.849915,-262.8006,9.655210351020315,0.0808771280250183,273.0084004391307,44.434937499999876,26.047603687505884
17:31:15:64,0.7975464,0.09877014,9.316101,0.047561646,0.06541443,-0.013320923,53.849793000000005,-51.000214,-263.025665,9.350699099153474,0.08196709591065274,273.2825331767126,44.434937499999876,26.047603753793943
17:31:15:65,0.6921997,0.11791992,9.196381,-0.0035705566,0.094177246,-0.009063721,53.99933,-51.150513,-263.25073,9.223148542085502,0.09467974216771062,273.55666591429457,44.43493749999987,26.047603820082
17:31:15:66,0.44558716,0.13708496,9.004852,-0.071746826,0.10696411,0.010101318,53.699748666666665,-51.350403,-263.30057666666664,9.016911874101856,0.12919351568288365,273.5835950804067,44.43493749999987,26.04760388637006
17:31:15:67,0.42164612,0.22566223,9.15329,-0.11329651,0.089920044,0.021820068,53.400167333333336,-51.550292999999996,-263.3504233333333,9.16577474721366,0.14627996738674323,273.6105242465188,44.43493749999986,26.047603952658115
17:31:15:68,0.51023865,0.23524475,9.356796,-0.21768188,-0.020874023,0.064437866,53.100586,-51.750183,-263.40027,9.373650033896741,0.2279766748840172,273.637453412631,44.43493749999986,26.04760401894617
17:31:15:69,0.720932,0.14665222,9.80452,-0.2421875,-0.08052063,0.074020386,53.250122,-48.599243,-262.5,9.83208331192606,0.265739298101421,272.21996971785137,44.434937499999855,26.04760408523423
17:31:15:70,0.7759857,0.07243347,10.02478,-0.22940063,-0.08798218,0.071899414,53.624725999999995,-49.874877999999995,-263.24996999999996,10.055029311870788,0.2559981226015001,273.24884782327257,44.434937499999855,26.047604151522286
17:31:15:71,0.73768616,0.06047058,10.151672,-0.20170593,-0.09970093,0.0750885,53.99933,-51.150513,-263.99994,10.178618862954103,0.2372000009955308,274.27772592869377,44.43493749999985,26.047604217810342
17:31:15:72,0.7472534,0.19692993,10.285751,-0.16442871,-0.12739563,0.08467102,52.7999885,-50.099945,-264.225005,10.314739098743232,0.22457878092821104,274.0716089365135,44.43493749999985,26.0476042840984
17:31:15:73,0.7735901,0.21130371,10.410248,-0.10902405,-0.19024658,0.08255005,51.600647,-49.049377,-264.45007,10.441089709516998,0.2342957862085902,273.8654919443332,44.43493749999984,26.047604350386457
17:31:15:74,0.73049927,0.20890808,10.491653,-0.069610596,-0.21261597,0.076156616,52.5756835,-49.274443500000004,-263.7001,10.519128026684,0.2363281953874475,273.37014184457337,44.43493749999984,26.047604416674513
17:31:15:75,0.66825867,0.16819763,10.462921,-0.04937744,-0.22219849,0.071899414,53.55072,-49.49951,-262.95013,10.485588965099137,0.23870447476487971,272.8747917448136,44.43493749999983,26.047604482962573
17:31:15:76,0.62275696,0.20651245,10.453339,-0.009963989,-0.25416565,0.09106445,52.5001525,-50.1747125,-263.475035,10.47390900629533,0.27017067340945267,273.30297040832056,44.43493749999983,26.04760454925063
17:31:15:77,0.79992676,0.29748535,10.5946045,-0.00036621094,-0.28504944,0.09638977,51.449585,-50.849915,-263.99994,10.628923974996198,0.3009058077130102,273.73114907182753,44.434937499999826,26.047604615538685
17:31:15:78,0.8190918,0.30467224,10.649673,0.002822876,-0.29037476,0.0942688,51.599884,-49.724579000000006,-262.874605,10.685470114018516,0.3053065287991873,272.46853192092016,44.43493749999982,26.047604681826744
17:31:15:79,0.74964905,0.23045349,10.549118,0.002822876,-0.25628662,0.08894348,51.750183,-48.599243,-261.74927,10.57823109442893,0.2712964114293556,271.2059147700128,44.43493749999982,26.0476047481148
17:31:15:80,0.71614075,0.22566223,10.522781,-0.015289307,-0.21047974,0.08999634,52.7999875,-49.424743500000005,-262.3497,10.549535581712597,0.22942280852697153,272.1383538830571,44.43493749999981,26.047604814402856
17:31:15:81,0.6921997,0.2807312,10.704727,-0.04512024,-0.19238281,0.1027832,53.849792,-50.250244,-262.95013,10.730756290954638,0.2227360946128707,273.07079299610143,44.43493749999981,26.047604880690916
17:31:15:82,0.7688141,0.26397705,10.862747,-0.05256653,-0.1913147,0.11024475,53.099823,-50.025177,-263.32473500000003,10.893118533702575,0.2269767816647628,273.2448512609428,44.434937499999805,26.04760494697897
17:31:15:83,0.8334503,0.11791992,11.162033,-0.027008057,-0.19238281,0.10171509,52.349854,-49.80011,-263.69934,11.193727047020214,0.21928643428201264,273.4189095257843,44.434937499999805,26.047605013267027
17:31:15:84,0.7831726,0.06285095,11.1835785,0.02519226,-0.18385315,0.09320068,51.9752505,-50.39978,-263.32473500000003,11.211143457692836,0.2076607750185203,273.09708391060667,44.4349374999998,26.047605079555087
17:31:15:85,0.804718,0.05567932,10.896271,0.092300415,-0.18278503,0.098526,51.600647,-50.99945,-262.95013,10.926087723958684,0.22723799523247235,272.775258295429,44.4349374999998,26.047605145843143
17:31:15:86,1.0249939,0.17059326,10.790924,0.17007446,-0.18811035,0.08680725,51.450348500000004,-50.624847,-262.95013,10.840837390587991,0.26804164671553676,272.67735089799817,44.43493749999979,26.0476052121312
17:31:15:87,1.1399078,0.18017578,10.7574005,0.18711853,-0.18278503,0.06869507,51.30005,-50.250244,-262.95013,10.819127442709958,0.270449115553678,272.57944350056727,44.43493749999979,26.047605278419258
17:31:15:88,1.0489349,0.21609497,10.386307,0.22972107,-0.102890015,-0.0005493164,51.525116499999996,-49.950409,-263.10042999999996,10.441376085494973,0.25171099884024223,272.7120511034689,44.43493749999978,26.047605344707314
17:31:15:89,0.98428345,0.24003601,10.314484,0.23397827,-0.079452515,-0.014389038,51.750183,-49.650574,-263.25073,10.364121351195026,0.2475188424879681,272.8446587063706,44.43493749999978,26.04760541099537
17:31:15:90,1.0034332,0.32382202,9.988861,0.23397827,-0.07733154,-0.025039673,51.750183,-50.025177,-263.77563499999997,10.04435577649558,0.24769534338560226,273.4195872717961,44.434937499999776,26.04760547728343
17:31:15:91,1.1710358,0.39564514,10.019989,0.22546387,-0.09437561,-0.04421997,51.750183,-50.39978,-264.30054,10.095941733281164,0.24838703304530593,273.9945158372216,44.434937499999776,26.047605543571485
17:31:15:92,1.2763824,0.34776306,10.053513,0.23931885,-0.102890015,-0.0974884,51.600138666666666,-50.44962533333333,-264.00045,10.140178243901797,0.27814358753453716,273.6859812329195,44.43493749999977,26.047605609859545
17:31:15:93,1.2380676,0.34059143,9.921829,0.254226685,-0.082649231,-0.12677765000000002,51.45009433333333,-50.49947066666667,-263.70036,10.0045741843219,0.29772635672417835,273.3774466286174,44.43493749999977,26.0476056761476
17:31:15:94,1.1877899,0.3310089,9.835632,0.26913452,-0.062408447,-0.1560669,51.30005,-50.549316,-263.40027,9.912621680355063,0.31730912591381955,273.0689120243153,44.43493749999976,26.047605742435657
17:31:15:95,1.0513306,0.41241455,9.536362,0.26913452,-0.07093811,-0.22105408,51.30005,-50.549316,-263.40027,9.602998593491101,0.35543003754698177,273.0689120243153,44.43493749999976,26.047605808723716
17:31:15:96,0.87176514,0.33340454,9.352005,0.2638092,-0.06347656,-0.24128723,51.30005,-50.39978,-263.1752,9.398464266391443,0.3631034219546086,272.8241777624413,44.434937499999755,26.047605875011772
17:31:15:97,0.7400818,0.2591858,9.13414,0.21055603,0.0057678223,-0.2785797,51.30005,-50.250244,-262.95013,9.167737555646589,0.34924741773638823,272.57944350056727,44.434937499999755,26.047605941299828
17:31:15:98,0.562912,0.23284912,9.043152,0.15621948,0.035583496,-0.2817688,51.824951999999996,-49.5002745,-262.650295,9.063646436591222,0.3241363413326133,272.2537457728407,44.43493749999975,26.047606007587888
17:31:15:99,0.5365753,0.3022766,9.031189,0.13066101,0.040908813,-0.2817688,52.349854,-48.750305,-262.35046,9.052163219319382,0.3132722253388083,271.92804804511417,44.43493749999975,26.047606073875944
17:31:16:00,0.60121155,0.32621765,9.239487,0.068862915,0.010025024,-0.28497314,52.349854,-49.8748775,-263.0249,9.264771627309221,0.2933467107195126,272.7839723401904,44.43493749999974,26.047606140164
17:31:16:01,0.7328949,0.33580017,9.514816,0.06034851,-0.02406311,-0.29881287,52.349854,-50.99945,-263.69934,9.548906754308266,0.3057942236206059,273.63989663526667,44.43493749999974,26.04760620645206
17:31:16:02,0.6826172,0.30706787,9.703964,0.06781006,-0.046432495,-0.31480408,51.9752505,-51.14975,-262.42447000000004,9.732788615387584,0.3253548672046801,272.36831190143056,44.434937499999734,26.047606272740115
17:31:16:03,0.6969757,0.25679016,9.823669,0.09017944,-0.072006226,-0.33078003,51.600647,-51.30005,-261.1496,9.851709949761226,0.3503322083798142,271.09672716759445,44.434937499999734,26.04760633902817
17:31:16:04,0.6969757,0.22805786,9.8715515,0.115737915,-0.08584595,-0.34994507,51.675415,-51.599885,-262.20016499999997,9.898753180630909,0.37845256521426124,272.17981056997314,44.43493749999973,26.04760640531623
17:31:16:05,0.8214874,0.1897583,10.094208,0.13598633,-0.07307434,-0.37765503,51.750183,-51.89972,-263.25073,10.129357576275094,0.4079895376080193,273.2628939723518,44.43493749999973,26.047606471604286
17:31:16:06,0.8549957,0.1035614,10.096603,0.16793823,-0.011276245,-0.4000244,52.0500185,-51.074982000000006,-263.3255,10.133268710055875,0.4339929992432976,273.2379040736373,44.43493749999972,26.047606537892342
17:31:16:07,0.88612366,0.026947021,9.933807,0.1849823,0.027069092,-0.40853882,52.349854,-50.250244,-263.40027,9.973287461815264,0.4492829336865433,273.21291417492284,44.43493749999972,26.0476066041804
17:31:16:08,0.7927551,0.08201599,9.6465,0.20948792,0.07713318,-0.4351654,52.0500185,-50.7003785,-264.07547,9.679367206651047,0.48908449315021096,273.890263202882,44.43493749999971,26.047606670468458
17:31:16:09,0.6921997,0.12271118,9.352005,0.19563293,0.06967163,-0.44476318,51.750183,-51.150513,-264.75067,9.378389839327543,0.4908570724874545,274.5676122308412,44.43493749999971,26.047606736756514
17:31:16:10,0.73049927,0.08680725,9.189209,0.16261292,0.05050659,-0.44688416,52.2750855,-51.225281499999994,-263.700105,9.21860763498502,0.4782251873785613,273.6695776652914,44.434937499999705,26.047606803044573
17:31:16:11,0.780777,0.03413391,9.11499,0.11148071,0.016418457,-0.44369507,52.799988,-51.30005,-262.64954,9.148432682576885,0.4577803289512011,272.7715430997417,44.434937499999705,26.04760686933263
17:31:16:12,0.8262634,-0.004180908,9.112595,0.057144165,-0.013412476,-0.4458313,52.82135028571428,-51.34299242857143,-262.62817714285717,9.149979033866487,0.4496786610077109,272.7632186929874,44.4349374999997,26.047606935620685
17:31:16:13,0.8315307399999999,-0.0008300779999999997,9.1652652,-0.001088462500000005,0.008247374999999998,-0.44991302666666666,52.84271257142857,-51.38593485714286,-262.6068142857143,9.202911249210343,0.4690420759713216,272.754894286233,44.4349374999997,26.047607001908744
17:31:16:14,0.83679808,0.0025207520000000002,9.2179354,-0.05932109000000001,0.029907225999999995,-0.45399475333333333,52.86407485714285,-51.428877285714286,-262.58545142857145,9.2558434645542,0.48840549093493224,272.7465698794787,44.43493749999969,26.0476070681968
17:31:16:15,0.84206542,0.005871582000000001,9.270605600000001,-0.11755371750000002,0.051567076999999996,-0.45807648,52.88543714285714,-51.471819714285715,-262.56408857142856,9.308775679898055,0.5077689058985428,272.73824547272443,44.43493749999969,26.04760713448486
17:31:16:16,0.84733276,0.009222412,9.323275800000001,-0.175786345,0.073226928,-0.4621582066666666,52.906799428571425,-51.514762142857144,-262.5427257142857,9.361707895241912,0.5271323208621536,272.72992106597013,44.434937499999684,26.047607200772916
17:31:16:17,0.8526001,0.012573242,9.375946,-0.2340189725,0.09488677899999998,-0.4662399333333333,52.928161714285714,-51.55770457142857,-262.52136285714283,9.414640110585768,0.5464957358257643,272.7215966592158,44.434937499999684,26.04760726706097
17:31:16:18,0.6251526,0.14665222,10.022385,-0.2922516,0.11654663,-0.47032166,52.949524,-51.600647,-262.5,10.042934020252382,0.5658591507893749,272.7132722524615,44.43493749999968,26.04760733334903
17:31:16:19,0.5748749,0.17778015,10.292938,-0.30397034,0.17193604,-0.4586029,53.6994935,-52.3506165,-263.0249,10.310512092240037,0.5764343755702007,273.5088447619029,44.43493749999968,26.047607399637087
17:31:16:20,0.507843,0.22566223,10.362366,-0.28266907,0.21348572,-0.4351654,54.449463,-53.100586,-263.5498,10.377256721920952,0.5611121823091558,274.3044172713443,44.43493749999967,26.047607465925143
17:31:16:21,0.5150299,0.27593994,10.3025055,-0.24005127,0.22520447,-0.4000244,54.299927,-51.30005,-263.69934,10.319060917831209,0.5180358927062427,274.0757543429251,44.43493749999967,26.047607532213203
17:31:16:22,0.66586304,0.34298706,10.098999,-0.1910553,0.20603943,-0.36061096,54.750061,-51.599885,-262.874605,10.126736617161843,0.4571593145118411,273.42957122862765,44.43493749999966,26.04760759850126
17:31:16:23,0.92681885,0.43156433,9.9266205,-0.16015625,0.17832947,-0.33078003,55.200195,-51.89972,-262.04987,9.979129997282525,0.4084933934977949,272.78338811433025,44.43493749999966,26.047607664789314
17:31:16:24,1.2644043,0.51776123,9.732681,-0.13778687,0.14212036,-0.30841064,54.2251585,-51.374817500000006,-262.6503,9.828116522147598,0.36647038234506224,273.06853572580246,44.434937499999656,26.047607731077374
17:31:16:25,1.5445251,0.63986206,9.442993,-0.1399231,0.09631348,-0.3009491,53.250122,-50.849915,-263.25073,9.589843483519763,0.3455793991749659,273.3536833372746,44.43493749999965,26.04760779736543
17:31:16:26,1.8126831,0.7930908,9.294556,-0.171875,0.033462524,-0.30734253,53.549957,-50.6996155,-262.950135,9.502819806520918,0.3537233196783207,273.09514534223047,44.43493749999965,26.047607863653486
17:31:16:27,2.0592804,0.9104004,9.4166565,-0.2421875,-0.011276245,-0.33717346,53.849792,-50.549316,-262.64954,9.682090905023387,0.4152925245967252,272.8366073471863,44.43493749999964,26.047607929941545
17:31:16:28,2.2771606,0.9463196,9.84761,-0.3199463,-0.034713745,-0.38510132,53.849792,-50.39978,-262.79983500000003,10.151670005257092,0.5018702079635307,272.95370017164385,44.43493749999964,26.0476079962296
17:31:16:29,2.2891235,0.84336853,10.233078,-0.38279724,0.0025634766,-0.43304443,53.849792,-50.250244,-262.95013,10.519849914791115,0.5779859658485846,273.07079299610143,44.434937499999634,26.047608062517657
17:31:16:30,2.1430817,0.66619873,10.644882,-0.4190216,0.05795288,-0.4586029,53.549957,-50.5500795,-262.725065,10.878884718327175,0.6239024422578135,272.8507838801454,44.434937499999634,26.047608128805717
17:31:16:31,2.068863,0.536911,11.047104,-0.41583252,0.117614746,-0.44262695,53.250122,-50.849915,-262.5,11.251976462893351,0.6186020772940367,272.6307747641893,44.43493749999963,26.047608195093773
17:31:16:32,2.1119537,0.44831848,11.403839,-0.36575317,0.16661072,-0.40960693,53.175354,-50.1747125,-262.42523,11.606415546083735,0.5738574304546314,272.41979361678926,44.43493749999963,26.04760826138183
17:31:16:33,2.3681335,0.29988098,11.592987,-0.25709534,0.21774292,-0.37019348,53.100586,-49.49951,-262.35046,11.836187412260632,0.5005528999959469,272.2088124693892,44.43493749999962,26.047608327669888
17:31:16:34,2.6362915,0.21609497,11.4253845,-0.104766846,0.26675415,-0.3552704,53.325653,-48.89984,-262.5,11.727580350689216,0.45645473563012817,272.28936033825823,44.43493749999962,26.047608393957944
17:31:16:35,2.8445892,0.14904785,10.862747,0.06460571,0.30403137,-0.35421753,53.55072,-48.30017,-262.64954,11.23001226020503,0.4712526183141924,272.3699082071272,44.43493749999961,26.047608460246
17:31:16:36,2.9499207,0.19213867,10.022385,0.20523071,0.29231262,-0.38084412,54.00034566666667,-48.650105333333336,-262.8499366666667,10.449265548019289,0.5221192927645395,272.7149623976453,44.43493749999961,26.04760852653406
17:31:16:37,2.9307709,0.20651245,9.524399,0.242507935,0.24864196500000002,-0.41120148,54.44997133333333,-49.00004066666666,-263.0503333333333,9.967258488245042,0.5418029378700128,273.0600165881634,44.434937499999606,26.047608592822115
17:31:16:38,2.6793823,0.29270935,8.00647,0.27978516,0.20497131,-0.44155884,54.899597,-49.349976,-263.25073,8.447977872487044,0.561486582975486,273.40507077868153,44.434937499999606,26.047608659110175
17:31:16:39,2.401657,0.34059143,7.4007416,0.19670105,0.1293335,-0.45755005,55.9494,-47.850037,-262.8006,7.788127830089142,0.5145585540522624,272.91778388668877,44.4349374999996,26.04760872539823
17:31:16:40,2.1119537,0.457901,7.111038,0.061416626,0.06222534,-0.4543457,55.5747975,-48.3749385,-262.05062999999996,7.43215198944348,0.4626813266124207,272.21261269944307,44.4349374999996,26.047608791686287
17:31:16:41,1.9754791,0.5345154,7.328903,-0.083465576,-0.021942139,-0.4309082,55.200195,-48.89984,-261.30066,7.609273524508301,0.43946539871547013,271.5074415121973,44.43493749999959,26.047608857974346
17:31:16:42,1.9850616,0.61112976,7.846054,-0.19744873,-0.08691406,-0.40534973,55.5747975,-48.89984,-261.15036,8.116311508947165,0.4591823803407198,271.43953526188,44.43493749999959,26.047608924262402
17:31:16:43,2.116745,0.63746643,8.312927,-0.25709534,-0.118881226,-0.38298035,55.9494,-48.89984,-261.00006,8.601844462191288,0.47634515661555876,271.3716290115627,44.434937499999585,26.047608990550458
17:31:16:44,2.2603912,0.65901184,8.71994,-0.26776123,-0.12846375,-0.37231445,56.174468,-49.275206999999995,-261.37466500000005,9.03222113247332,0.47625314805676394,271.84635165318474,44.434937499999585,26.047609056838517
17:31:16:45,2.3465881,0.81703186,8.911484,-0.25816345,-0.13485718,-0.37338257,56.399536,-49.650574,-261.74927,9.251408749675514,0.473549753978671,272.3210742948068,44.43493749999958,26.047609123126573
17:31:16:46,2.33461,1.0157471,8.8181,-0.2102356,-0.15509033,-0.39682007,55.799865499999996,-50.025177,-262.274935,9.178291433227558,0.47509808031781586,272.77253763825195,44.43493749999958,26.04760918941463
17:31:16:47,2.310669,1.2455902,8.545166,-0.20596313,-0.17959595,-0.42878723,55.200195,-50.39978,-262.8006,8.939270000478396,0.5084623926967189,273.2240009816971,44.43493749999957,26.04760925570269
17:31:16:48,2.195755,1.4131927,8.447006,-0.23899841,-0.20303345,-0.45755005,55.4252625,-49.2752075,-262.8006,8.841400567296693,0.5547025059042306,273.0667532849269,44.43493749999957,26.047609321990745
17:31:16:49,2.061676,1.4802246,8.497284,-0.30078125,-0.1998291,-0.4809723,55.65033,-48.150635,-262.8006,8.868224634732544,0.6014444138286285,272.90950558815666,44.43493749999956,26.0476093882788
17:31:16:50,1.8126831,1.4538879,8.676849,-0.36895752,-0.18598938,-0.4958954,55.799865,-48.9006045,-262.6503,8.982612015198754,0.6454718807031757,272.9298099097373,44.43493749999956,26.04760945456686
17:31:16:51,1.4990387,1.4275513,9.047943,-0.43180847,-0.17745972,-0.5012207,55.9494,-49.650574,-262.5,9.281718174426457,0.6849618216329354,272.95011423131785,44.434937499999556,26.047609520854916
17:31:16:52,1.2955322,1.3365784,9.445389,-0.4616394,-0.18385315,-0.49057007,55.874633,-48.300171,-262.725065,9.627056604274456,0.698263496093765,272.9124755791148,44.434937499999556,26.047609587142972
17:31:16:53,1.1806183,1.204895,9.890701,-0.4509735,-0.16041565,-0.47032166,55.799866,-46.949768,-262.95013,10.03352369821893,0.6710534571346221,272.87483692691177,44.43493749999955,26.04760965343103
17:31:16:54,1.156662,1.1210938,10.170822,-0.40197754,-0.11248779,-0.44795227,55.874633,-47.024536,-263.10042999999996,10.297588962777958,0.6122913373237356,273.0478377615253,44.43493749999955,26.047609719719087
17:31:16:55,1.0752716,1.0947571,10.132523,-0.3252716,-0.05921936,-0.43304443,55.9494,-47.099304,-263.25073,10.2480595464359,0.5448266005982036,273.2208385961388,44.43493749999954,26.047609786007143
17:31:16:56,0.98428345,1.1091309,9.907471,-0.24111938,-0.007019043,-0.4234619,56.999968499999994,-47.549438499999994,-263.10042999999996,10.017832444152761,0.4873477230149232,273.3735308460921,44.43493749999954,26.047609852295203
17:31:16:57,0.85739136,1.1450348,9.517212,-0.17933655,0.02067566,-0.42132568,58.050537,-47.999573,-262.95013,9.624112888487836,0.4583714756720803,273.5262230960454,44.434937499999535,26.04760991858326
17:31:16:58,0.7041626,1.1785583,9.184418,-0.15377808,0.027069092,-0.41812134,58.150228,-47.399902,-262.84993333333335,9.28646211603007,0.4463248688943811,273.3477320689845,44.434937499999535,26.047609984871315
17:31:16:59,0.5748749,1.2575684,8.875565,-0.16229248,0.02281189,-0.4021454,58.249919,-46.800231000000004,-262.74973666666665,8.982628429393792,0.4342581653015663,273.16924104192367,44.43493749999953,26.047610051159374
17:31:16:60,0.43362427,1.3126373,8.602631,-0.20170593,-0.00062561035,-0.38084412,58.34961,-46.20056,-262.64954,8.712996431254023,0.4309616193166734,272.9907500148628,44.43493749999953,26.04761011744743
17:31:16:61,0.24447632,1.4012146,8.717545,-0.26029968,-0.050689697,-0.36061096,58.2000735,-46.350097000000005,-262.79983500000003,8.832822983243743,0.44762219925085905,273.12887353098085,44.43493749999952,26.04761018373549
17:31:16:62,0.10083008,1.5185394,9.141327,-0.30822754,-0.1252594,-0.33822632,58.050537,-46.499634,-262.95013,9.267145619623886,0.4744377485440572,273.266997047099,44.43493749999952,26.047610250023546
17:31:16:63,0.06491089,1.5113525,9.581848,-0.33486938,-0.18492126,-0.30413818,57.7499385,-46.799469,-262.125395,9.700526320669455,0.4887058487426607,272.46133626323706,44.43493749999951,26.0476103163116
17:31:16:64,0.07688904,1.4395294,9.902679,-0.33061218,-0.19664001,-0.26686096,57.44934,-47.099304,-261.30066,10.007057919037816,0.46817355656772636,271.6556754793752,44.43493749999951,26.04761038259966
17:31:16:65,0.06730652,1.4371338,10.1684265,-0.31143188,-0.17852783,-0.22105408,57.6744075,-46.4996335,-261.524965,10.26970209950801,0.4215766932000507,271.81665727479674,44.434937499999506,26.047610448887717
17:31:16:66,0.10562134,1.5879669,10.228287,-0.28373718,-0.15615845,-0.18270874,57.899475,-45.899963,-261.74927,10.351359799433503,0.3718531060689725,271.97763907021823,44.434937499999506,26.047610515175773
17:31:16:67,0.18940735,1.6454315,10.285751,-0.26029968,-0.11141968,-0.14648438,58.049774,-45.3750615,-262.124635,10.418252905330492,0.3187913770530646,272.28356938743366,44.4349374999995,26.047610581463832
17:31:16:68,0.4001007,1.7579498,10.326447,-0.24325562,-0.07626343,-0.1251831,58.200073,-44.85016,-262.5,10.482651177696868,0.2840074223370919,272.58949970464914,44.4349374999995,26.04761064775189
17:31:16:69,0.5198059,1.8632965,10.326447,-0.21875,-0.040039062,-0.11665344,58.5746765,-44.249726,-262.6503,10.506073465591037,0.2511229062623986,272.7172861732892,44.43493749999949,26.047610714039944
17:31:16:70,0.6131897,1.9638519,10.443771,-0.1953125,-0.019805908,-0.11772156,58.94928,-43.649292,-262.8006,10.644485360681402,0.2289052475081951,272.8450726419293,44.43493749999949,26.047610780328004
17:31:16:71,0.67063904,2.0237122,10.549118,-0.15164185,-0.01234436,-0.12411499,58.649445,-44.3244935,-263.47504,10.762390922482094,0.1963470515132127,273.5398194415796,44.434937499999485,26.04761084661606
17:31:16:72,0.646698,1.9758301,10.61615,-0.10369873,0.004699707,-0.14434814,58.34961,-44.999695,-264.14948,10.81779846871673,0.17779735479179198,274.2345662412299,44.434937499999485,26.047610912904116
17:31:16:73,0.6060028,1.8920288,10.599396,-0.044052124,0.030258179,-0.15180969,58.950043,-44.2497255,-263.24996999999996,10.783979225613024,0.16094200509252865,273.37645879889516,44.43493749999948,26.047610979192175
17:31:16:74,0.60839844,1.8130188,10.532349,0.011352539,0.05050659,-0.15501404,59.550476,-43.499756,-262.35046,10.704557967928842,0.16342933755080885,272.5183513565604,44.43493749999947,26.04761104548023
17:31:16:75,0.5461426,1.7388,10.367157,0.05821228,0.06222534,-0.15927124,59.700013,-44.1001895,-262.875365,10.526140861787086,0.18063219638827294,273.15312785282254,44.43493749999947,26.047611111768287
17:31:16:76,0.44319153,1.6430359,10.015198,0.07846069,0.07394409,-0.15927124,59.84955,-44.700623,-263.40027,10.158748775324476,0.19233079891775473,273.7879043490846,44.434937499999464,26.047611178056346
17:31:16:77,0.43841553,1.6382446,9.907471,0.09762573,0.07180786,-0.13476562,60.52475,-44.550323500000005,-263.10043499999995,10.05156879109999,0.18124272192227997,273.62448220675844,44.434937499999464,26.047611244344402
17:31:16:78,0.53178406,1.7124634,9.96492,0.09017944,0.027069092,-0.11772156,61.19995,-44.400024,-262.8006,10.12496695249963,0.15074293624993398,273.46106006443233,44.43493749999946,26.04761131063246
17:31:16:79,0.5461426,1.7914734,10.096603,0.073135376,-0.00062561035,-0.10493469,61.35025,-44.325257,-263.10043499999995,10.26883833849045,0.12790802858447747,273.7707848404435,44.43493749999946,26.047611376920518
17:31:16:80,0.6203613,1.7914734,10.441376,0.052886963,-0.03152466,-0.092163086,61.50055,-44.25049,-263.40027,10.612094885498397,0.11083713035135097,274.08050961645466,44.43493749999945,26.047611443208574
17:31:16:81,0.68022156,1.6933136,10.834015,0.053955078,-0.048568726,-0.08683777,61.35025,-45.0752265,-262.950135,10.98662338204322,0.11318511335781777,273.7502493984217,44.43493749999945,26.04761150949663
17:31:16:82,0.7352905,1.5448761,11.066254,0.07418823,-0.019805908,-0.08149719,61.19995,-45.899963,-262.5,11.197735122615532,0.11197302996763757,273.4199891803887,44.43493749999944,26.04761157578469
17:31:16:83,0.720932,1.3940277,11.09259,0.10722351,0.033462524,-0.0697937,61.425017499999996,-46.2753295,-262.6503,11.203062486886846,0.1322413784292219,273.67821697968844,44.43493749999944,26.047611642072745
17:31:16:84,0.6562805,1.3054504,11.173996,0.12638855,0.08139038,-0.0463562,61.650085,-46.650696,-262.8006,11.269121148055708,0.1573129263795156,273.9364447789882,44.434937499999435,26.0476117083608
17:31:16:85,0.68740845,1.2001038,11.080627,0.15196228,0.11228943,-0.010131836,61.274719,-46.2753295,-262.425235,11.166605313211122,0.18921972606801385,273.42853911768884,44.434937499999435,26.04761177464886
17:31:16:86,0.69937134,1.1450348,10.95134,0.16900635,0.11654663,0.027145386,60.899353,-45.899963,-262.04987,11.033225854663922,0.20708243596637643,272.92063345638945,44.43493749999943,26.047611840936916
17:31:16:87,0.70176697,1.1234894,10.948944,0.18284607,0.07926941,0.06123352,61.7996215,-45.899963,-262.79983500000003,11.028784159064466,0.20848469643545398,273.84352156911905,44.43493749999943,26.047611907224976
17:31:16:88,0.77838135,1.0325165,11.097382,0.19456482,0.008956909,0.097457886,62.69989,-45.899963,-263.5498,11.172459671116474,0.21779287165574468,274.7664096818486,44.43493749999942,26.047611973513032
17:31:16:89,1.0010529,0.8768921,11.253006,0.21907043,-0.052825928,0.1304779,62.85019,-46.424865499999996,-262.95013,11.33142491920927,0.26039760820302493,274.3148541387633,44.43493749999942,26.047612039801088
17:31:16:90,1.2500458,0.67099,11.387085,0.25102234,-0.10609436,0.16030884,63.00049,-46.949768,-262.35046,11.47512731430125,0.31617582542792677,273.86329859567803,44.434937499999414,26.047612106089147
17:31:16:91,1.4559479,0.49621582,11.437363,0.28511047,-0.16574097,0.18693542,63.150025,-46.575164,-262.125395,11.540333046377027,0.379081654120505,273.6184344076441,44.434937499999414,26.047612172377203
17:31:16:92,1.824646,0.36213684,11.166809,0.30110168,-0.23712158,0.21144104,63.29956,-46.20056,-261.90033,11.320693413333045,0.437717007662257,273.37357021961014,44.43493749999941,26.04761223866526
17:31:16:93,1.9395752,0.34536743,11.118927,0.2787323,-0.3212738,0.2242279,63.150025,-46.725463000000005,-262.274935,11.292110885458433,0.48081878162998165,273.7875142194506,44.43493749999941,26.04761230495332
17:31:16:94,2.0808258,0.23524475,11.312866,0.22227478,-0.38731384,0.23381042,63.00049,-47.250366,-262.64954,11.50504729396208,0.5040688454766575,274.2014582192911,44.4349374999994,26.047612371241375
17:31:16:95,2.3394012,-0.0736084,11.997604,0.16261292,-0.41607666,0.24552917,62.3252875,-47.325134,-261.9751,12.223776745013303,0.5097522163449325,273.41426347669994,44.4349374999994,26.04761243752943
17:31:16:96,2.377716,-0.15501404,12.160416,0.13171387,-0.41714478,0.26364136,61.650085,-47.399902,-261.30066,12.391661713519664,0.5107495254371509,272.6270687341087,44.43493749999939,26.04761250381749
17:31:16:97,2.2963104,-0.344162,12.366318,0.11999512,-0.3905182,0.274292,61.7248525,-47.325134,-261.600495,12.58242066585425,0.4920766145825814,272.9184143799837,44.43493749999939,26.047612570105546
17:31:16:98,2.1358948,-0.4447174,12.342361,0.11894226,-0.339386,0.28814697,61.79962,-47.250366,-261.90033,12.533702374671691,0.4608240385766443,273.2097600258586,44.434937499999386,26.047612636393602
17:31:16:99,2.0664673,-0.48062134,12.25618,0.12426758,-0.25309753,0.31263733,61.875152,-47.325134,-261.450195,12.438457788923541,0.42100224612308923,272.808467775588,44.434937499999386,26.04761270268166
17:31:17:00,1.9730988,-0.44711304,11.882675,0.115737915,-0.14337158,0.3403473,61.950684,-47.399902,-261.00006,12.053671395086416,0.38702320284129427,272.40717552531737,44.43493749999938,26.047612768969717
17:31:17:01,1.8869019,-0.34176636,11.339203,0.08378601,-0.016601562,0.36697388,61.950684,-48.149871,-260.09979,11.50020555034823,0.37678314178690947,271.6781912574871,44.43493749999938,26.047612835257773
17:31:17:02,1.7192993,-0.27471924,10.77417,0.002822876,0.21774292,0.40213013,61.950684,-48.89984,-259.19952,10.913945204769293,0.45730579407312855,270.9492069896568,44.43493749999937,26.047612901545833
17:31:17:03,1.3649597,-0.16459656,10.2211,-0.04084778,0.28805542,0.40638733,62.174988,-48.89984,-259.34982,10.313151420404333,0.4997950861171343,271.14440326078704,44.43493749999937,26.04761296783389
17:31:17:04,0.938797,-0.1023407,10.019989,-0.1633606,0.3711548,0.401062,62.399292,-48.89984,-259.50012,10.064392330697691,0.5703448948131297,271.3395995319173,44.434937499999364,26.047613034121945
17:31:17:05,0.66825867,-0.2866974,10.333633,-0.29864502,0.4031067,0.38720703,62.924957500000005,-48.7495415,-259.72519,10.359186069758856,0.6337295508630723,271.6495828711401,44.434937499999364,26.047613100410004
17:31:17:06,0.57966614,-0.4782257,10.551498,-0.38919067,0.422287,0.38401794,63.450623,-48.599243,-259.95026,10.578223986001005,0.6908440245278904,271.95956621036294,44.43493749999936,26.04761316669806
17:31:17:07,0.428833,-0.9738312,11.087799,-0.40197754,0.44677734,0.39253235,63.67569,-48.22464,-260.099795,11.138740126799954,0.717828377816348,272.0887895591294,44.43493749999936,26.047613232986116
17:31:17:08,0.2013855,-1.3760529,11.434967,-0.3199463,0.4510498,0.4191742,63.900757,-47.850037,-260.24933,11.519225147304729,0.6939153888691113,272.2180129078958,44.43493749999935,26.047613299274175
17:31:17:09,0.03617859,-1.605896,11.403839,-0.16229248,0.422287,0.4788208,63.5253905,-47.850037,-260.624695,11.516412409735567,0.6587370628302239,272.4895245752191,44.43493749999935,26.04761336556223
17:31:17:10,0.04336548,-1.5747681,11.195541,0.12852478,0.29444885,0.5949402,63.150024,-47.850037,-261.00006,11.305835370122557,0.6761453881499236,272.76103624254245,44.43493749999934,26.04761343185029
17:31:17:11,0.4360199,-1.3209839,10.350388,0.22332764,0.23052979,0.6268921,63.600157,-47.775268499999996,-260.54993,10.443449792467968,0.7042818497645837,272.42249997740095,44.43493749999934,26.047613498138347
17:31:17:12,0.83584595,-1.1294556,9.620163,0.38204956,0.09098816,0.6609802,64.05029,-47.7005,-260.0998,9.72223454515842,0.7688533906723825,272.08396371225945,44.434937499999336,26.047613564426403
17:31:17:13,1.1255493,-0.8828583,9.012039,0.48432922,-0.038986206,0.64393616,63.150023000000004,-48.2254025,-259.87473,9.124864214996867,0.8066898386366524,271.75267625580494,44.434937499999336,26.047613630714462
17:31:17:14,1.120758,-0.76553345,8.619385,0.5066986,-0.16362,0.5800171,62.249756,-48.750305,-259.64966,8.725590967714329,0.7873593918499797,271.42138879935044,44.43493749999933,26.047613697002518
17:31:17:15,0.96513367,-0.8972168,8.439819,0.4598236,-0.22007751,0.49479675,61.6500855,-49.6498105,-259.50013,8.54207385474575,0.7104193672298937,271.3067122616501,44.43493749999933,26.047613763290574
17:31:17:16,0.80711365,-1.0600281,8.413483,0.37353516,-0.16041565,0.42556763,61.050415,-50.549316,-259.3506,8.518320738742755,0.5885316509967539,271.1920357239498,44.43493749999932,26.047613829578633
17:31:17:17,0.7424774,-1.2108612,8.655304,0.23292542,0.061157227,0.3733673,61.1251825,-49.949646,-259.27506,8.771074328016619,0.44429449513334723,271.02611531028356,44.43493749999932,26.04761389586669
17:31:17:18,0.68022156,-1.2731018,8.832474,0.20628357,0.14744568,0.36058044,61.19995,-49.349976,-259.19952,8.949641698108817,0.44080766045203995,270.86019489661726,44.434937499999315,26.047613962154745
17:31:17:19,0.56770325,-1.3162079,8.865982,0.20523071,0.30723572,0.3350067,61.19995,-49.124908,-258.07495,8.981109454872877,0.49874133678281823,269.74328184784224,44.434937499999315,26.047614028442805
17:31:17:20,0.5174103,-1.4023895,8.71994,0.24890137,0.40629578,0.3030548,61.19995,-48.89984,-256.95038,8.847133057203125,0.5646860761845693,268.6263687990673,44.43493749999931,26.04761409473086
17:31:17:21,0.48869324,-1.447876,8.56192,0.32559204,0.4638214,0.2711029,62.10022,-48.9746085,-258.00019,8.697220250206252,0.6282015998051356,269.85082273694184,44.4349374999993,26.047614252164998
17:31:17:22,0.4767151,-1.5747681,8.138153,0.40655518,0.51283264,0.2476654,63.00049,-49.049377,-259.05,8.302811939743947,0.69973036334817,271.07527667481634,44.43493749999929,26.04761440959913
17:31:17:23,0.49108887,-1.6226654,7.580307,0.45661926,0.5426483,0.22529602,62.775422,-49.7993465,-257.92466,7.76757783950982,0.7441280956419251,270.08658007057045,44.43493749999928,26.047614567033268
17:31:17:24,0.40968323,-1.6394196,6.9889374,0.4555664,0.54159546,0.2007904,62.550354,-50.549316,-256.79932,7.1903256501306085,0.7356515288054064,269.09788346632456,44.43493749999927,26.047614724467405
17:31:17:25,0.24926758,-1.6011047,6.308975,0.42147827,0.51708984,0.1816101,62.550354,-50.549316,-256.79932,6.513742099394644,0.6913812719009884,269.09788346632456,44.434937499999265,26.047614881901538
17:31:17:26,0.30194092,-1.6082916,6.1988525,0.34796143,0.49046326,0.16777039,62.550354,-50.549316,-256.79932,6.411204450534803,0.6243222484728737,269.09788346632456,44.43493749999926,26.047615039335675
17:31:17:27,0.37376404,-1.5292816,5.9929504,0.24143982,0.44784546,0.15072632,62.625122000000005,-50.474548,-256.49948500000005,6.1962776137416435,0.530638451551512,268.8151648592551,44.43493749999925,26.04761519676981
17:31:17:28,0.2995453,-1.4957733,6.0767365,0.11999512,0.39564514,0.1304779,62.69989,-50.39978,-256.19965,6.265284641752299,0.4335416796777952,268.5324462521857,44.434937499999236,26.04761535420395
17:31:17:29,0.07688904,-1.6490021,6.1749115,0.0124053955,0.361557,0.12942505,62.474823,-50.849914999999996,-255.899815,6.3917643795049885,0.3842241554796027,268.27935403875983,44.43493749999923,26.04761551163808
17:31:17:30,0.06011963,-1.6418152,6.1940613,-0.08558655,0.328537,0.15284729,62.249756,-51.30005,-255.59998,6.408242107553372,0.37232232268593113,268.0262618253339,44.43493749999922,26.04761566907222
17:31:17:31,0.1726532,-1.5005493,6.383194,-0.17401123,0.28805542,0.18800354,62.699889999999996,-51.225281499999994,-254.77524,6.559468192684276,0.38548821539707395,267.3315063918312,44.434937499999215,26.047615826506355
17:31:17:32,0.3905182,-1.253952,6.6178284,-0.2922516,0.1612854,0.23168945,63.150024,-51.150513,-253.9505,6.7468920855962855,0.4063298896180571,266.6367509583286,44.4349374999992,26.04761598394049
17:31:17:33,0.53897095,-1.016922,6.9937286,-0.32847595,0.092041016,0.23274231,62.924957000000006,-51.000214,-254.55017,7.087796538381013,0.41296123452310973,267.1264758632077,44.434937499999194,26.047616141374625
17:31:17:34,0.63713074,-0.9738312,7.2858124,-0.42008972,-0.13804626,0.20932007,62.69989,-50.849915,-255.14984,7.378166785451529,0.48923106448228626,267.6162007680868,44.43493749999919,26.047616298808762
17:31:17:35,0.6538849,-0.96424866,7.743103,-0.4840088,-0.2509613,0.19760132,62.54959100000001,-50.475311500000004,-254.92477000000002,7.830260851936467,0.579907211751046,267.29563703474776,44.43493749999918,26.047616456242896
17:31:17:36,0.81669617,-0.9067993,8.379959,-0.5415344,-0.31913757,0.1965332,62.399292,-50.100708,-254.6997,8.468352286380991,0.658584537983625,266.97507330140866,44.43493749999917,26.047616613677032
17:31:17:37,1.0130157,-0.7391968,9.13414,-0.57774353,-0.33299255,0.18588257,62.699891,-49.575042499999995,-254.474635,9.21982246343045,0.6922600339772391,266.7333123525189,44.43493749999916,26.04761677111117
17:31:17:38,1.0896301,-0.66737366,9.732681,-0.5766754,-0.292511,0.15605164,63.00049,-49.049377,-254.24957,9.8161988979772,0.6651836712013077,266.49155140362916,44.43493749999915,26.047616928545303
17:31:17:39,1.0513306,-0.5907593,10.120544,-0.5489807,-0.20729065,0.123031616,63.60016,-49.7245785,-253.424835,10.192139296387627,0.5995715145714345,265.97535653827254,44.434937499999144,26.04761708597944
17:31:17:40,1.0225983,-0.5332947,10.199554,-0.53193665,-0.15934753,0.11238098,64.19983,-50.39978,-252.6001,10.264551247820187,0.5665489560453569,265.4591616729159,44.43493749999914,26.047617243413576
17:31:17:41,0.93400574,-0.3872528,10.218704,-0.48080444,-0.032592773,0.1219635,63.375092,-50.099945,-253.94974000000002,10.268604719876835,0.49710189469342514,266.4927775404858,44.43493749999913,26.04761740084771
17:31:17:42,1.1399078,-0.17176819,10.113373,-0.4456482,0.033462524,0.1496582,62.550354,-49.80011,-255.29938,10.178860817435599,0.4712956985830982,267.52639340805575,44.434937499999116,26.047617558281846
17:31:17:43,1.4224243,0.16342163,9.984085,-0.40197754,0.04837036,0.15711975,62.625122000000005,-49.725342,-254.249575,10.086225795886554,0.4342951188201909,266.5285717388939,44.43493749999911,26.047617715715983
17:31:17:44,1.7264862,0.53211975,9.993652,-0.38279724,0.027069092,0.1496582,62.69989,-49.650574,-253.19977,10.155638154455609,0.41190294915254255,265.530750069732,44.4349374999991,26.047617873150116
17:31:17:45,1.9874573,0.90800476,10.055908,-0.34231567,-0.03578186,0.111312866,62.999725,-49.950409,-253.125,10.290565818650109,0.3617332077232369,265.58700375295734,44.434937499999094,26.047618030584253
17:31:17:46,2.0090027,1.046875,10.144485,-0.31462097,-0.107162476,0.046325684,63.29956,-50.250244,-253.05023,10.394354959758555,0.3355834024862662,265.6432574361827,44.43493749999908,26.04761818801839
17:31:17:47,1.9754791,1.0205383,10.199554,-0.30184937,-0.20089722,-0.05380249,63.674925,-49.874877,-252.674865,10.439105224837025,0.3665616497989464,265.3052869929652,44.43493749999907,26.047618345452527
17:31:17:48,1.9395752,0.8625183,10.292938,-0.31462097,-0.2381897,-0.10067749,64.05029,-49.49951,-252.2995,10.50954149552367,0.4072550121760701,264.9673165497477,44.434937499999066,26.04761850288666
17:31:17:49,1.9539337,0.7835083,10.575455,-0.3391266,-0.25735474,-0.12944031,64.64996,-49.1249075,-251.7746,10.782949068654158,0.4449641635917703,264.54474092493007,44.43493749999906,26.047618660320797
17:31:17:50,1.9970398,0.8122406,11.176392,-0.34231567,-0.28079224,-0.15820312,65.24963,-48.750305,-251.2497,11.382426845481433,0.47016223492481923,264.12216530011244,44.43493749999905,26.047618817754934
17:31:17:51,2.037735,0.82901,11.82283,-0.30929565,-0.32980347,-0.19548035,64.199827,-49.4255065,-251.92489999999998,12.025761128478521,0.4925918139485124,264.6363603164747,44.43493749999904,26.047618975189067
17:31:17:52,1.9323883,0.77394104,12.248993,-0.23579407,-0.3947754,-0.24128723,63.150024,-50.100708,-252.6001,12.424610206739775,0.5192937388929293,265.150555332837,44.43493749999903,26.047619132623204
17:31:17:53,1.8773193,0.60873413,12.380676,-0.15483093,-0.4608307,-0.2828369,63.899992,-48.375702000000004,-251.85012999999998,12.536986209299082,0.5624360078700197,264.3015042855998,44.43493749999902,26.04761929005734
17:31:17:54,1.8701477,0.5417023,12.392639,-0.12606812,-0.48638916,-0.2966919,64.64996,-46.650696,-251.10016,12.5446560409587,0.5835183539285204,263.4524532383626,44.434937499999016,26.047619447491474
17:31:17:55,1.9563293,0.46029663,12.292084,-0.11329651,-0.5076904,-0.31692505,63.825224999999996,-48.075103,-251.17493,12.455297121332908,0.6091199625261371,263.5837965389343,44.43493749999901,26.04761960492561
17:31:17:56,2.0449219,0.52493286,12.543488,-0.15803528,-0.5407257,-0.33078003,63.00049,-49.49951,-251.2497,12.719919468721152,0.6532800782298273,263.715139839506,44.434937499998995,26.047619762359748
17:31:17:57,2.2340546,0.48184204,13.072601,-0.19638062,-0.6003723,-0.34461975,63.050334666666664,-48.79964066666667,-251.44959,13.270872940861635,0.7195658542544503,263.7891193949564,44.43493749999899,26.04761991979388
17:31:17:58,2.4854584,0.38128662,13.671143,-0.20491028,-0.6238098,-0.36273193,63.10017933333334,-48.09977133333333,-251.64947999999998,13.900468836379966,0.7501342163021516,263.8630989504069,44.43493749999898,26.047620077228018
17:31:17:59,2.717682,0.23764038,14.272095,-0.19212341,-0.6248779,-0.3765869,63.150024,-47.399902,-251.84937,14.530483959330313,0.7544544305854716,263.9370785058573,44.43493749999897,26.047620234662155
17:31:17:60,3.057663,0.0748291,14.712631,-0.083465576,-0.58439636,-0.44155884,63.150024,-47.099304,-251.40076,15.02718913695894,0.7371972715226277,263.45514247602495,44.434937499998966,26.04762039209629
17:31:17:61,3.4167938,-0.16699219,14.691086,0.020935059,-0.515152,-0.52145386,64.27536,-46.724700999999996,-251.77535999999998,15.084109987753186,0.7333034759962844,264.0200360176586,44.43493749999895,26.047620549530425
17:31:17:62,3.476654,-0.2795105,14.422928,0.10722351,-0.43951416,-0.6205292,65.400696,-46.350098,-252.14996,14.838669119854053,0.7679362382319679,264.5849295592922,44.434937499998945,26.047620706964562
17:31:17:63,3.2132874,-0.24121094,14.035065,0.15196228,-0.3447113,-0.7281189,64.75067166666666,-46.350098,-251.64998,14.400223893634411,0.8198021391943903,263.94929524665207,44.43493749999894,26.0476208643987
17:31:17:64,2.8804932,-0.12149048,13.726212,0.14450073,-0.25735474,-0.8208008,64.10064733333333,-46.350098,-251.15,14.025722686582709,0.8722533327260151,263.313660934012,44.43493749999893,26.047621021832832
17:31:17:65,2.6769867,-0.11909485,13.651993,0.12106323,-0.15615845,-0.8857727,63.450623,-46.350098,-250.65002,13.91248914635057,0.9075434112094724,262.6780266213718,44.43493749999892,26.04762117926697
17:31:17:66,2.4279938,-0.16937256,13.783676,0.11254883,-0.11035156,-0.90815735,63.450623,-46.350098,-250.274655,13.996912696373276,0.9217344944656378,262.31989768527876,44.43493749999891,26.047621336701106
17:31:17:67,2.408844,-0.2723236,13.848328,0.13171387,0.00044250488,-0.9273224,63.450623,-46.350098,-249.89929,14.058907423944328,0.9366299017769536,261.9617687491857,44.4349374999989,26.04762149413524
17:31:17:68,2.5309448,-0.34176636,13.527496,0.22227478,0.12187195,-0.93585205,63.375091499999996,-46.275329,-250.19989,13.766467733427143,0.969576149412749,262.2171422558919,44.434937499998895,26.047621651569376
17:31:17:69,2.5907898,-0.42555237,12.761353,0.41401672,0.27314758,-0.9688721,63.29956,-46.20056,-250.50049,13.028638340133847,1.0884542209288477,262.4725157625981,44.43493749999889,26.047621809003513
17:31:17:70,2.4184113,-0.62667847,11.592987,0.46621704,0.328537,-0.9965668,65.69977,-44.85016,-251.10016,11.859122509819109,1.1482335457639274,263.39948174228454,44.434937499998874,26.047621966437646
17:31:17:71,2.1023865,-0.81581116,10.429398,0.5056305,0.46170044,-1.0540924,65.14994333333334,-44.050090000000004,-250.55033333333333,10.670422647981981,1.2569567560438202,262.60545229435746,44.43493749999887,26.047622123871783
17:31:17:72,1.9299927,-0.9666443,9.960144,0.46194458,0.584198,-1.0935059,64.60011666666666,-43.25002,-250.00050666666667,10.191356216201639,1.3230401549197917,261.81142284643033,44.43493749999886,26.04762228130592
17:31:17:73,1.5948029,-1.2180328,9.021606,0.37460327,0.6917877,-1.1169434,64.05029,-42.44995,-249.45068,9.242097976702057,1.366184610720507,261.01739339850326,44.43493749999885,26.047622438740053
17:31:17:74,1.3841248,-1.3209839,8.743881,0.22865295,0.79299927,-1.1201324,64.87503000000001,-42.150115,-248.400115,8.950768395405795,1.3913398604560983,260.17143768459965,44.434937499998846,26.04762259617419
17:31:17:75,1.3841248,-1.2563477,9.059921,0.16368103,0.7812805,-1.1030884,65.69977,-41.85028,-247.34955,9.250750214523757,1.3616147463495947,259.32548197069605,44.43493749999883,26.047622753608326
17:31:17:76,1.5157928,-1.2252197,9.426224,0.17752075,0.74505615,-1.0700684,65.174865,-41.6999815,-247.724915,9.62561634514777,1.3159288217878446,259.527807902399,44.434937499998824,26.04762291104246
17:31:17:77,1.5708618,-1.28508,9.519608,0.21588135,0.7290802,-1.0540924,64.64996,-41.549683,-248.10028,9.73354888387392,1.2997205403653598,259.73013383410193,44.43493749999882,26.047623068476597
17:31:17:78,1.5349579,-1.2563477,9.287369,0.39057922,0.6129608,-1.0018921,64.64996,-41.549683,-247.94997999999998,9.496827272317251,1.2377644563788615,259.5865713925084,44.43493749999881,26.047623225910733
17:31:17:79,1.42482,-1.1318512,8.734299,0.5162811,0.49897766,-0.97206116,64.64996,-41.549683,-247.79968,8.921837153453454,1.2084816002640797,259.4430089509149,44.434937499998796,26.04762338334487
17:31:17:80,1.2691956,-1.036087,7.9514008,0.60150146,0.38819885,-0.94436646,64.05029,-40.950012,-247.20001,8.118442487624643,1.1850444566751013,258.625575061486,44.43493749999879,26.047623540779004
17:31:17:81,1.1806183,-0.9738312,7.190048,0.62812805,0.2774048,-0.9102783,64.70031666666667,-40.699768,-246.85007333333334,7.351122160506675,1.1402214055659246,258.41572697699894,44.43493749999878,26.04762369821314
17:31:17:82,1.0225983,-0.8876343,6.60347,0.61535645,0.23478699,-0.89749146,65.35034333333334,-40.449524000000004,-246.50013666666666,6.740876647335966,1.1132292719843448,258.2058788925119,44.434937499998775,26.047623855647277
17:31:17:83,0.84303284,-0.78707886,6.1605377,0.5929718,0.2039032,-0.88365173,66.00037,-40.19928,-246.1502,6.267569086519801,1.0835277802149204,257.99603080802484,44.43493749999877,26.04762401308141
17:31:17:84,0.73768616,-0.641037,5.892395,0.41508484,0.1378479,-0.8058777,65.85007,-39.749908500000004,-246.22497,5.972891104151284,0.9169167548308438,257.95978678472903,44.43493749999875,26.047624170515547
17:31:17:85,0.7640228,-0.5740051,5.825348,0.36288452,0.13146973,-0.7792511,65.69977,-39.300537,-246.29974,5.903210314299318,0.869598609482049,257.9235427614332,44.434937499998746,26.047624327949684
17:31:17:86,0.7145436333333334,-0.4870147533333334,6.0711518,0.30926513666666666,0.12365723,-0.76753235,65.4747025,-38.77525275,-246.5248075,6.135138833732694,0.839253923881551,258.00397264811477,44.43493749999874,26.047624485383817
17:31:17:87,0.6650644666666666,-0.4000244066666667,6.3169556,0.25564575333333334,0.11584473,-0.7558136,65.249635,-38.249968499999994,-246.749875,6.36706735316607,0.8089092382810528,258.08440253479637,44.43493749999873,26.047624642817954
17:31:17:88,0.6155853,-0.31303406,6.5627594,0.20202637,0.10803223,-0.74409485,65.02456749999999,-37.724684249999996,-246.9749425,6.598995872599446,0.7785645526805547,258.1648324214779,44.434937499998725,26.04762480025209
17:31:17:89,0.58924866,-0.35372925,6.955414,-0.0035705566,0.04197693,-0.6833801,64.7995,-37.1994,-247.20001,6.98928624946878,0.684677422296565,258.24526230815945,44.43493749999871,26.047624957686224
17:31:17:90,0.63713074,-0.4159851,7.1708984,-0.004638672,0.040908813,-0.6674042,64.49991899999999,-37.14955533333333,-247.15016666666665,7.211155458482192,0.6686728755053793,258.1156518565703,44.4349374999987,26.04762511512036
17:31:17:91,0.6778259,-0.43992615,7.4989014,0.010284424,0.039855957,-0.6503601,64.200338,-37.09971066666667,-247.10032333333334,7.542314311607982,0.6516613586498801,257.9860414049811,44.434937499998696,26.047625272554498
17:31:17:92,0.6251526,-0.28190613,7.565933,0.117874146,-0.016601562,-0.6066742,63.900757,-37.049866,-247.05048,7.596948663766746,0.6182422754080388,257.85643095339196,44.43493749999869,26.047625429988635
17:31:17:93,0.6155853,-0.19570923,7.5539703,0.14875793,-0.050689697,-0.5981598,64.10064799999999,-36.849975666666666,-246.50014666666667,7.5815377501906145,0.6184605997603054,257.3507142934165,44.434937499998675,26.04762558742277
17:31:17:94,0.562911975,-0.065231325,7.39714815,0.18391418,-0.1279220585,-0.60774995,64.300539,-36.65008533333334,-245.94981333333334,7.420056724744034,0.6524463354954526,256.84499763344104,44.43493749999867,26.047625744856905
17:31:17:95,0.51023865,0.06524658,7.240326,0.21907043,-0.20515442,-0.6173401,64.50043,-36.450195,-245.39948,7.258575699297453,0.6864320712305998,256.3392809734656,44.43493749999866,26.047625902291042
17:31:17:96,0.39770508,0.07962036,7.0487823,0.20309448,-0.1998291,-0.6215973,64.725495,-36.3754275,-245.47501,7.060441958204715,0.6837852297180529,256.4577740523912,44.434937499998654,26.047626059725175
17:31:17:97,0.06491089,0.24241638,6.6058655,0.055023193,-0.14762878,-0.61520386,64.95056,-36.30066,-245.55054,6.610630690715006,0.6350571610580447,256.57626713131674,44.43493749999865,26.047626217159312
17:31:17:98,-0.11545308333333332,0.29269917666666667,6.873214666666667,-0.06996663800000001,-0.110702512,-0.5910593733333334,64.90020666666666,-36.00057,-245.75042666666667,6.884957641387014,0.6337476282919102,256.71302607157617,44.43493749999863,26.04762637459345
17:31:17:99,-0.29581705666666663,0.3429819733333333,7.140563833333333,-0.19495646900000002,-0.073776244,-0.5669148866666667,64.84985333333333,-35.70048,-245.95031333333336,7.159284592059022,0.6324380955257758,256.84978501183565,44.434937499998625,26.047626532027582
17:31:18:00,-0.47618103,0.39326477,7.407913,-0.3199463,-0.036849976,-0.5427704,64.7995,-35.40039,-246.1502,7.43361154273103,0.6311285627596414,256.9865439520951,44.43493749999862,26.04762668946172
17:31:18:01,-0.62701416,0.4004364,8.605026,-0.44778442,0.03239441,-0.44262695,63.150024,-35.850525,-246.29974,8.637127330771584,0.6304592781935143,256.7815172438309,44.43493749999861,26.047626846895856
17:31:18:02,-0.611450195,0.46149445,9.043159500000002,-0.44405365,0.06701660200000001,-0.390426635,63.974762,-34.8754875,-244.87457,9.075743987441307,0.5974581487471871,255.4889746507139,44.434937499998604,26.04762700432999
17:31:18:03,-0.59588623,0.5225525,9.481293,-0.44032288,0.101638794,-0.33822632,64.7995,-33.90045,-243.4494,9.514360644111031,0.5644570193008599,254.19643205759695,44.43493749999859,26.047627161764126
17:31:18:04,-0.7802429,0.7404175,10.285751,-0.36895752,0.08139038,-0.23384094,65.19979,-33.50016166666666,-243.84969,10.341840778667386,0.4443372938896514,254.63018256221804,44.43493749999858,26.047627319198263
17:31:18:05,-0.90234375,0.7978821,10.654449,-0.30024719499999997,0.06275177,-0.159805295,65.60008,-33.099873333333335,-244.24998,10.722318946117275,0.3475796970119001,255.06393306683916,44.434937499998576,26.0476274766324
17:31:18:06,-0.8365020750000001,0.80027772,10.7083205,-0.23153687,0.04411316,-0.08576965,66.00037,-32.699585,-244.65027,10.770941783552724,0.25082210013414885,255.49768357146024,44.43493749999857,26.047627634066533
17:31:18:07,-0.7706604,0.80267334,10.762192,-0.13778687,0.007888794,0.020767212,65.24963,-32.400513,-242.84973,10.819564620988173,0.13956622696563908,253.54151300896066,44.434937499998554,26.04762779150067
17:31:18:08,-0.51927185,1.0827942,10.544327,-0.02168274,-0.08265686,0.16030884,64.84985,-32.500203666666664,-242.69968666666665,10.612488794655334,0.18166238438684218,253.3084683195561,44.43493749999855,26.047627948934807
17:31:18:09,-0.272666931,1.2444000499999999,10.4461595,-0.0003738405,-0.16734314,0.22209167,64.45007,-32.59989433333333,-242.54964333333334,10.527797572661811,0.2809244831002281,253.0754236301516,44.43493749999854,26.04762810636894
17:31:18:10,-0.026062012,1.4060059,10.347992,0.020935059,-0.25202942,0.2838745,64.05029,-32.699585,-242.3996,10.443106350668286,0.3801865818136141,252.84237894074704,44.43493749999853,26.047628263803077
17:31:18:11,0.310317994,1.41079715,10.512001,0.0017623904999999988,-0.26853943,0.31211089999999997,64.12506,-32.2494505,-241.94946499999998,10.615978500183829,0.41223771782409485,252.3723119946941,44.43493749999852,26.047628421237214
17:31:18:12,0.646698,1.4155884,10.67601,-0.017410278,-0.28504944,0.3403473,64.19983,-31.799316,-241.49933,10.788850649699372,0.4442888538345756,251.90224504864113,44.43493749999851,26.047628578671347
17:31:18:13,0.725708,1.39044955,10.765792999999999,-0.02557881666666667,-0.26232401666666666,0.34460450000000004,63.84989466666667,-31.549580666666667,-241.84977333333333,10.879750626480266,0.4350305529678448,252.11905759228455,44.434937499998505,26.047628736105484
17:31:18:14,0.804718,1.3653107,10.855576,-0.03374735533333334,-0.23959859333333333,0.3488617,63.49995933333334,-31.299845333333334,-242.20021666666665,10.970650603261161,0.42577225210111397,252.33587013592796,44.4349374999985,26.04762889353962
17:31:18:15,0.8981018,1.2479858,11.066254,-0.041915894,-0.21687317,0.3531189,63.150024,-31.05011,-242.55066,11.172557137588552,0.4165139512343832,252.55268267957138,44.43493749999848,26.047629050973754
17:31:18:16,1.1303406,1.1977081,11.865921,-0.005706787,-0.2232666,0.33607483,63.224792,-29.850006,-242.700195,11.979660084620724,0.40351807078859836,252.5732559318256,44.434937499998476,26.04762920840789
17:31:18:17,1.2213135,1.1665802,12.186752,0.03691101,-0.2232666,0.3169098,63.29956,-28.649902,-242.84973,12.303228858223287,0.38941265859088364,252.59382918407982,44.43493749999847,26.047629365842027
17:31:18:18,1.1458968999999999,1.07559967,12.356735,0.07099914500000001,-0.20409393,0.30306245,62.999725,-29.474639500000002,-240.899655,12.457049917146282,0.37420882432392044,250.74191271849799,44.43493749999846,26.047629523276164
17:31:18:19,1.0704803,0.98461914,12.526718,0.10508728,-0.18492126,0.2892151,62.69989,-30.299377,-238.94958,12.610870976069277,0.3590049900569573,248.88999625291618,44.43493749999845,26.047629680710298
17:31:18:20,1.0585098,0.8266067500000001,12.5159455,0.116271975,-0.125267025,0.28068543,62.325287,-30.449676500000002,-239.69955,12.588778839400163,0.33330350172239676,249.53518304068191,44.43493749999844,26.047629838144434
17:31:18:21,1.0465393,0.66859436,12.505173,0.12745667,-0.06561279,0.27215576,61.950684,-30.599976,-240.44952,12.566686702731047,0.30760201338783627,250.18036982844765,44.43493749999843,26.04762999557857
17:31:18:22,1.0656891,0.3310089,11.904236,0.12638855,0.10910034,0.25724792,61.90032933333333,-30.449931,-240.74961333333334,11.956424837443423,0.30668133641215356,250.43826102275105,44.434937499998426,26.047630153012705
17:31:18:23,0.9771118,0.3884735,11.367935,0.115737915,0.1762085,0.25299072,61.84997466666667,-30.299886,-241.04970666666665,11.416462030512188,0.32931596506533906,250.69615221705445,44.43493749999842,26.04763031044684
17:31:18:24,0.9100647,0.457901,11.130905,0.06567383,0.25289917,0.24234009,61.79962,-30.149841,-241.3498,11.177429812036937,0.3563702587966144,250.95404341135784,44.434937499998405,26.04763046788098
17:31:18:25,0.6131897,0.7188721,10.561081,-0.07281494,0.23692322,0.22741699,61.950684,-28.799438,-239.25018,10.603264148030336,0.33638239401465725,248.81306940596207,44.4349374999984,26.047630625315115
17:31:18:26,0.4407959,0.75717163,10.597,-0.20384216,0.1378479,0.22741699,61.350504666666666,-28.549702666666665,-238.99993666666666,10.633156582254099,0.3350703762921093,248.39597853362758,44.43493749999839,26.04763078274925
17:31:18:27,0.32588196,0.74520874,10.764587,-0.27734375,0.07499695,0.22741699,60.750325333333336,-28.299967333333335,-238.74969333333334,10.795270649622214,0.36641859329737225,247.9788876612931,44.434937499998384,26.047630940183385
17:31:18:28,0.15829468,0.44354248,11.971268,-0.441391,-0.083724976,0.24978638,60.150146,-28.050232,-238.49945,11.980527728990275,0.5140322189519885,247.56179678895862,44.43493749999837,26.047631097617522
17:31:18:29,0.0816803,0.024551392,13.096542,-0.46376038,-0.14762878,0.29240417,59.84955,-28.199768,-238.80005,13.096819720833803,0.567774731187838,247.7956001031068,44.43493749999836,26.047631255051655
17:31:18:30,0.052947998,-0.19570923,13.534683,-0.43925476,-0.17427063,0.32330322,59.499614666666666,-27.950032666666665,-238.65000333333333,13.536201442933995,0.5725731121224807,247.53891706788497,44.434937499998355,26.047631412485792
17:31:18:31,0.072097779,-0.602729815,13.971626,-0.207565307,-0.15349579000000002,0.42396546,59.14967933333333,-27.700297333333335,-238.49995666666666,13.990198453692503,0.5571329371504207,247.28223403266315,44.43493749999835,26.04763156991993
17:31:18:32,0.09124756,-1.0097504,14.408569,0.024124146,-0.13272095,0.5246277,58.799744,-27.450562,-238.34991,14.44419546445101,0.5416927621783606,247.02555099744131,44.434937499998334,26.047631727354062
17:31:18:33,0.27560425,-1.3832397,13.678329,0.27552795,-0.06347656,0.60665894,58.799744,-26.69983,-237.60071,13.750854300824917,0.6693130765064729,246.2202026824739,44.43493749999833,26.0476318847882
17:31:18:34,0.519813525,-1.3664779500000002,12.4752425,0.44064331,-0.02619171,0.64926912,58.874511999999996,-26.6250615,-237.900545,12.564604717244906,0.7944835681796313,246.51933590560074,44.43493749999832,26.047632042222336
17:31:18:35,0.7640228,-1.3497162,11.272156,0.60575867,0.01109314,0.6918793,58.94928,-26.550293,-238.20038,11.378355133664895,0.9196540598527897,246.81846912872757,44.43493749999831,26.04763219965647
17:31:18:36,0.95555875,-1.23719025,10.5263675,0.548767085,-0.034713745,0.6748352200000001,58.09936533333333,-26.800028666666666,-237.85044333333332,10.644992878506793,0.8724454668988435,246.30855754503563,44.4349374999983,26.047632357090606
17:31:18:37,1.1470947,-1.1246643,9.780579,0.4917755,-0.08052063,0.65779114,57.24945066666667,-27.049764333333332,-237.50050666666667,9.91163062334869,0.8252368739448974,245.79864596134368,44.43493749999829,26.047632514524743
17:31:18:38,1.22131345,-1.15937805,9.906272999999999,0.42306518,-0.046966552999999994,0.63381957,56.399536,-27.2995,-237.15057,10.048570479487566,0.7653441960339574,245.28873437765174,44.434937499998284,26.04763267195888
17:31:18:39,1.2955322,-1.1940918,10.031967,0.35435486,-0.013412476,0.609848,56.700134,-27.000427,-237.75024,10.185510335626441,0.7054515181230174,245.90466623034604,44.43493749999828,26.047632829393013
17:31:18:40,1.2763824,-1.2563477,10.192368,0.34050751,0.056892397000000004,0.5821533,55.65032933333333,-26.800537,-237.84993333333333,10.34852293913238,0.6807159817590147,245.74391347782142,44.43493749999827,26.04763298682715
17:31:18:41,1.0154114,-1.3162079,10.309692,0.32666016,0.12719727,0.5544586,54.600524666666665,-26.600647,-237.94962666666666,10.442854623240542,0.6559804453950121,245.58316072529684,44.434937499998256,26.047633144261287
17:31:18:42,0.7472534,-1.3449249,10.154068,0.38204956,0.25183105,0.5533905,53.55072,-26.400757,-238.04932,10.269971157655487,0.7180680953297857,245.42240797277222,44.43493749999825,26.04763330169542
17:31:18:43,0.7544403,-1.28866575,9.7985305,0.42147064,0.28964996,0.570968625,54.450225,-26.77536,-238.04932,9.911726591734777,0.7670917382305767,245.66260887306956,44.43493749999824,26.047633459129557
17:31:18:44,0.7616272,-1.2324066,9.442993,0.46089172,0.32746887,0.58854675,55.34973,-27.149963,-238.04932,9.553482025814064,0.8161153811313678,245.9028097733669,44.434937499998235,26.047633616563694
17:31:18:45,0.8310547,-1.0863647,8.952179,0.50349426,0.31895447,0.60665894,52.349854,-27.149963,-237.60071,9.056066973241704,0.8504548743277635,244.8095690475084,44.43493749999822,26.04763377399783
17:31:18:46,1.04533385,-0.8708801,8.584671,0.5146789549999999,0.23479462,0.5944061199999999,51.8997195,-26.699829,-238.05007999999998,8.697503954790587,0.8246413443532676,245.10166094545428,44.43493749999821,26.047633931431964
17:31:18:47,1.259613,-0.6553955,8.217163,0.52586365,0.15063477,0.5821533,51.449585,-26.249695,-238.49945,8.338940936339473,0.7988278143787718,245.39375284340014,44.434937499998206,26.0476340888661
17:31:18:48,1.4344025,-0.6769562,8.051956,0.52586365,0.11122131,0.529953,52.049763999999996,-26.499938999999998,-238.39976,8.206690907708216,0.7548198065753432,245.45209107032463,44.4349374999982,26.047634246300237
17:31:18:49,1.3290558,-0.77272035,7.856826700000001,0.5237427,0.11122131,0.5001373,52.649943,-26.750183,-238.30007,8.006976338598779,0.7326758590623115,245.5104292972491,44.434937499998185,26.04763440373437
17:31:18:50,1.2237091,-0.8684845,7.6616974,0.5056305,0.16767883,0.41384888,53.250122,-27.000427,-238.20038,7.80726176948934,0.6745734118964912,245.56876752417358,44.43493749999818,26.047634561168508
17:31:18:51,1.0393524,-0.9834137,7.3336945,0.48112488,0.22946167,0.36909485,52.200317,-27.749634,-238.20038,7.471976374163913,0.6483554707494383,245.4268451375661,44.43493749999817,26.047634718602644
17:31:18:52,0.8909149000000001,-0.9738311799999999,7.04040525,0.43212128,0.296043395,0.34086609,52.200317,-27.749634,-238.20038,7.163984047832031,0.6307793639145582,245.4268451375661,44.43493749999816,26.047634876036778
17:31:18:53,0.7424774,-0.96424866,6.747116,0.38311768,0.36262512,0.31263733,52.200317,-27.749634,-238.20038,6.855991721500148,0.613203257079678,245.4268451375661,44.43493749999815,26.047635033470915
17:31:18:54,0.6143875,-0.80623628,6.60466,0.32080079,0.377540585,0.311576845,51.67541475,-27.2247315,-238.162615,6.684403395055054,0.5882290808453903,245.22336528136864,44.43493749999814,26.04763519090505
17:31:18:55,0.4862976,-0.6482239,6.462204,0.2584839,0.39245605,0.31051636,51.1505125,-26.699829,-238.12484999999998,6.51281506860996,0.5632549046111024,245.0198854251712,44.434937499998135,26.047635348339185
17:31:18:56,0.51023865,-0.339370739,6.5567779999999996,0.19350434,0.337593075,0.31264495999999997,50.625610249999994,-26.174926499999998,-238.087085,6.592826374257598,0.5027254637140282,244.81640556897378,44.43493749999813,26.04763550577332
17:31:18:57,0.5341797,-0.030517578,6.651352,0.12852478,0.2827301,0.31477356,50.100708,-25.650024,-238.04932,6.672837679905235,0.4421960228169539,244.61292571277633,44.434937499998114,26.04763566320746
17:31:18:58,0.59283448,0.062858581,7.017662,0.106155395,0.19591522,0.30039214999999997,49.57542425,-25.424957,-238.087085,7.0435703760603,0.37978411906694787,244.52110316039466,44.43493749999811,26.047635820641595
17:31:18:59,0.65148926,0.15623474,7.383972,0.08378601,0.10910034,0.28601074,49.0501405,-25.19989,-238.12484999999998,7.414303072215366,0.3173722153169419,244.42928060801296,44.4349374999981,26.04763597807573
17:31:18:60,0.8190918,0.28312683,8.073502,0.106689455,0.006828306999999992,0.25831603999999997,48.52485675,-24.974823,-238.162615,8.119883418048383,0.2993008535304532,244.3374580556313,44.43493749999809,26.047636135509865
17:31:18:61,0.9172516000000001,0.42558288499999997,8.1872255,0.1295929,-0.095443726,0.23062134,47.999573,-24.749756,-238.20038,8.250988202717839,0.2812294917439646,244.24563550324962,44.434937499998085,26.047636292944002
17:31:18:62,1.0154114,0.56803894,8.300949,0.1381073,-0.17745972,0.16670227,47.999573,-24.749756,-238.20038,8.382092987387296,0.2799200338648902,244.24563550324962,44.43493749999807,26.047636450378135
17:31:18:63,1.1135712,0.56085205,8.475731,0.12052917499999999,-0.107154848,0.094261169,48.6747745,-24.0745545,-237.750245,8.567295238021597,0.19571159716751044,243.874914302394,44.434937499998064,26.047636607812272
17:31:18:64,1.211731,0.55366516,8.650513,0.10295105,-0.036849976,0.021820068,49.349976,-23.399353,-237.30011,8.7524974886559,0.11150316047013063,243.50419310153836,44.43493749999806,26.04763676524641
17:31:18:65,0.92204285,0.5225525,8.38475,0.051818848,0.13465881,-0.0463562,49.349976,-23.62442,-237.674715,8.451464766239777,0.15154895379745517,243.89105114125408,44.43493749999805,26.047636922680546
17:31:18:66,0.844230655,0.57881165,8.3045425,0.013473511,0.19857788,-0.0697937,49.349976,-23.849487,-238.04932,8.36790567648493,0.21091673827283486,244.27790918096983,44.434937499998036,26.04763708011468
17:31:18:67,0.76641846,0.6350708,8.224335,-0.10050964,0.29763794,-0.1251831,47.399902,-23.399353,-238.04932,8.284346586730084,0.33817353472142553,243.84781972142093,44.43493749999803,26.047637237548816
17:31:18:68,0.7759857,0.809845,8.62178,-0.19851685,0.2784729,-0.18270874,47.35005666666667,-22.949727333333335,-237.94962666666666,8.694428854101313,0.387735192419672,243.69884584975824,44.43493749999802,26.047637394982953
17:31:18:69,0.7149353,0.831398025,8.804939000000001,-0.22194672,0.2507782,-0.19921875,47.30021133333333,-22.500101666666666,-237.84993333333333,8.873277744486355,0.3916773639056046,243.54987197809558,44.434937499998014,26.047637552417086
17:31:18:70,0.6538849,0.85295105,8.988098,-0.24537659,0.2230835,-0.21572876,47.250366,-22.050476,-237.75024,9.052126634871396,0.3956195353915371,243.4008981064329,44.434937499998,26.047637709851223
17:31:18:71,0.77479555,0.7811203,9.659668,-0.25923156999999997,0.12720489699999998,-0.23863220000000002,47.325134,-22.350310999999998,-237.14981,9.723174531252024,0.38751907919423356,242.85674171048552,44.43493749999799,26.04763786728536
17:31:18:72,0.8957062,0.70928955,10.331238,-0.27308655,0.031326294,-0.26153564,47.399902,-22.650146,-236.54938,10.394222427632654,0.37941862299693,242.31258531453815,44.434937499997986,26.047638024719493
17:31:18:73,0.9771118,0.4985962,10.75502,-0.23899841,-0.0016937256,-0.28071594,43.94989,-21.000671,-237.44965,10.810818694287388,0.3686794646559797,242.39421878127547,44.43493749999798,26.04763818215363
17:31:18:74,0.92681885,0.31185913,10.886688,-0.18040466,-0.06454468,-0.29455566,44.025040000000004,-20.812988,-237.44965,10.930518053002961,0.35138994565020437,242.39192128259907,44.434937499997964,26.047638339587767
17:31:18:75,0.966323875,0.345375065,10.932182000000001,-0.1756134,-0.075195315,-0.29615783,44.10019,-20.625305,-237.44965,10.980343353303116,0.3526206268761627,242.38962378392267,44.43493749999796,26.0476384970219
17:31:18:76,1.0058289,0.378891,10.977676,-0.17082214,-0.08584595,-0.29776,44.17534,-20.437622,-237.44965,11.030168653603273,0.35385130810212095,242.3873262852463,44.43493749999795,26.047638654456037
17:31:18:77,0.94358065,0.43755341,11.2146985,-0.1867981,-0.13058472,-0.30734253,44.25049,-20.249939,-237.44965,11.263233829057754,0.38262949443017236,242.3850287865699,44.43493749999794,26.047638811890174
17:31:18:78,0.8813324,0.49621582,11.451721,-0.25604248,-0.14550781,-0.31159973,44.25049,-21.000671,-235.65063,11.496299004512235,0.4287477884160097,240.687252398392,44.43493749999793,26.04763896932431
17:31:18:79,0.9256286499999999,0.58240509,11.9580995,-0.28959655500000003,-0.14763641,-0.28337096500000003,43.35022,-20.400238,-235.65063,12.008161174416717,0.43343634541230014,240.474024051319,44.43493749999792,26.047639126758444
17:31:18:80,0.9699249,0.66859436,12.464478,-0.32315063,-0.14976501,-0.2551422,42.44995,-19.799805,-235.65063,12.520023344321201,0.43812490240859053,240.260795704246,44.434937499997915,26.04763928419258
17:31:18:81,1.3266602,0.52493286,13.0295105,-0.32208252,-0.1955719,-0.21147156,43.499756,-16.949463,-236.70044,13.107392023716315,0.43209459432859604,241.2604637404179,44.43493749999791,26.047639441626718
17:31:18:82,2.109558,-0.032913208,13.513138,-0.21128845,-0.30529785,-0.15820312,43.29986566666666,-16.74957266666667,-236.50055,13.67684966802183,0.40358123531175155,241.01463768259813,44.4349374999979,26.04763959906085
17:31:18:83,2.2951125,0.000610351000000002,13.420959499999999,-0.13406372,-0.35909271,-0.16139984000000002,43.09997533333333,-16.549682333333333,-236.30066,13.617275710720438,0.42584353763715976,240.76881162477838,44.434937499997886,26.047639756494988
17:31:18:84,2.480667,0.03413391,13.328781,-0.05683899,-0.41288757,-0.16459656,42.900085,-16.349792,-236.10077,13.557701753419046,0.448105839962568,240.52298556695862,44.43493749999788,26.047639913929125
17:31:18:85,2.595581,0.46987915,13.019928,0.002822876,-0.501297,-0.21147156,40.499878,-17.250061,-235.9497,13.284440231652583,0.5440835152131931,240.02096919354483,44.43493749999787,26.04764007136326
17:31:18:86,2.7751465,0.58000183,12.761353,0.0017547607,-0.53538513,-0.29881287,40.250142000000004,-17.499796666666665,-236.44968333333333,13.07248907476593,0.6131308570671257,240.48925219954023,44.434937499997865,26.047640228797395
17:31:18:87,2.6626282,0.23045349,12.47644,-0.08665466,-0.3947754,-0.45541382,40.000406,-17.749532333333335,-236.94966666666667,12.759476980507015,0.6088993299321884,240.9575352055356,44.43493749999786,26.04764038623153
17:31:18:88,2.5500946,0.03054046499999999,12.469261,-0.11186726666666666,-0.26729838666666667,-0.49837748,39.75067,-17.999268,-237.44965,12.729421129321501,0.6081163378596847,241.425818211531,44.434937499997844,26.04764054366567
17:31:18:89,2.437561,-0.16937256,12.462082,-0.13707987333333332,-0.13982137333333333,-0.54134114,39.900206999999995,-17.999268,-237.075045,12.69936527813599,0.6073333457871809,241.08218876132688,44.43493749999784,26.0476407010998
17:31:18:90,1.9491577,-0.54766846,12.215469,-0.16229248,-0.01234436,-0.5843048,40.049744,-17.999268,-236.70044,12.382117725635993,0.6065503537146771,240.73855931112274,44.43493749999783,26.04764085853394
17:31:18:91,1.4798889,-0.70806885,11.80368,-0.11541748,0.12187195,-0.53956604,38.99994,-16.499329,-237.15057,11.917142870465367,0.5650712153416014,240.9016729472395,44.43493749999782,26.047641015968075
17:31:18:92,1.6271285999999998,-0.690116875,11.432579,-0.027000427000000007,0.047836304999999996,-0.49216461,38.28735425,-16.27464325,-237.56294,11.570088254714758,0.5074092909072856,241.1822644980988,44.43493749999781,26.04764117340221
17:31:18:93,1.7743683,-0.6721649,11.061478,0.061416626,-0.02619934,-0.44476318,37.574768500000005,-16.049957499999998,-237.97530999999998,11.22303363896415,0.44974736647296987,241.46285604895812,44.4349374999978,26.047641330836345
17:31:18:94,1.7935257,-0.6434325999999999,10.5419315,0.101364138,-0.07306671,-0.44742583999999996,36.86218275,-15.825271749999999,-238.38768,10.713278220411922,0.4682524126909192,241.74344759981744,44.434937499997794,26.047641488270482
17:31:18:95,1.8126831,-0.6147003,10.022385,0.14131165,-0.11993408,-0.4500885,36.149597,-15.600586,-238.80005,10.203522801859695,0.4867574589088686,242.02403915067674,44.43493749999779,26.047641645704616
17:31:18:96,1.6833954,-0.58836365,9.471725,0.15408325,-0.14550781,-0.4586029,36.799621333333334,-15.950520666666668,-238.90025,9.638130852660565,0.5052037119716843,242.2456862091246,44.43493749999778,26.047641803138752
17:31:18:97,1.5541077,-0.63864136,8.892319,0.1290512075,-0.12207030999999999,-0.45967102,37.44964566666667,-16.300455333333336,-239.00045,9.049665779887286,0.4938636292859927,242.46733326757249,44.434937499997766,26.04764196057289
17:31:18:98,1.4655151,-0.70329285,8.655304,0.104019165,-0.09863281,-0.46073914,38.09967,-16.65039,-239.10065,8.806624930903162,0.48252354660030106,242.68898032602036,44.43493749999776,26.047642118007026
17:31:18:99,1.393692,-0.6721649,8.037598,-0.016357422,0.008956909,-0.43943787,36.149597,-15.899658,-241.65039,8.185179573672162,0.4398334151283384,244.85608727358905,44.43493749999775,26.04764227544116
17:31:19:00,1.2476501500000001,-0.587165825,7.6808625,-0.079208376,0.0409164445,-0.43890381,35.6994635,-16.7999265,-241.049955,7.804346399397156,0.45318682964159673,244.2596731883167,44.434937499997744,26.047642432875296
17:31:19:01,1.1016083,-0.50216675,7.324127,-0.14205933,0.07287598,-0.43836975,35.24933,-17.700195,-240.44952,7.423513225122149,0.4665402441548551,243.66325910304437,44.43493749999774,26.047642590309433
17:31:19:02,0.96513367,-0.38964844,7.2379303,-0.18572998,0.06222534,-0.43623352,35.1745615,-17.437743750000003,-240.56205500000002,7.312382917723893,0.47819170045130055,243.74508878474023,44.43493749999772,26.047642747743566
17:31:19:03,0.68022156,-0.23641968,7.202011,-0.27201843,0.014282227,-0.4255829,35.099793000000005,-17.1752925,-240.67459000000002,7.237924984406866,0.5052908202611189,243.82691846643607,44.434937499997716,26.047642905177703
17:31:19:04,0.50424958,-0.21247864,7.4617843,-0.34552001499999996,-0.030990601499999992,-0.40055085,35.0250245,-16.91284125,-240.787125,7.484378523479798,0.5365510199621393,243.9087481481319,44.43493749999771,26.04764306261184
17:31:19:05,0.3282776,-0.1885376,7.7215576,-0.4190216,-0.07626343,-0.3755188,34.950256,-16.65039,-240.89966,7.730832062552729,0.5678112196631596,243.99057782982777,44.4349374999977,26.047643220045977
17:31:19:06,0.29834748,-0.23402404999999998,8.014846799999999,-0.42115020000000003,-0.049102784499999996,-0.32172394,35.099793000000005,-16.200256,-241.349795,8.02400045969836,0.5346207828382119,244.42668578318933,44.43493749999769,26.04764337748011
17:31:19:07,0.26841736,-0.2795105,8.308136,-0.4232788,-0.021942139,-0.26792908,35.24933,-15.750122,-241.79993,8.317168856843992,0.5014303460132641,244.8627937365509,44.43493749999768,26.047643534914247
17:31:19:08,0.24208069,-0.20648956499999999,8.311729499999998,-0.340721125,0.020141600499999995,-0.215194705,34.3498235,-15.29998775,-241.20026000000001,8.3181804410081,0.4063700144650067,244.11550199782806,44.43493749999767,26.047643692348384
17:31:19:09,0.21574402,-0.13346863,8.315323,-0.25816345,0.06222534,-0.16246033,33.450317,-14.8498535,-240.60059,8.319192025172205,0.3113096829167493,243.36821025910524,44.434937499997666,26.047643849782517
17:31:19:10,0.31869507,0.03413391,7.609024,-0.09625244,0.094177246,-0.111328125,31.500244,-15.449524,-241.20026,7.615771655192282,0.17472217170729576,243.73862760743054,44.43493749999766,26.047644007216654
17:31:19:11,0.28038788000000003,0.18616485500000002,6.820137,-0.057365416999999995,0.088317871,-0.0985488875,31.9503785,-14.9246215,-242.175295,6.83067245677246,0.1475634268972563,244.73023937512204,44.434937499997645,26.04764416465079
17:31:19:12,0.24208069,0.3381958,6.03125,-0.018478394,0.082458496,-0.08576965,32.400513,-14.399719,-243.15033,6.045573258352636,0.12040468208721683,245.72185114281356,44.43493749999764,26.047644322084924
17:31:19:13,0.17504883,0.42677307,5.7607117,-0.038726807,0.052627563,-0.08576965,32.0999145,-15.2999875,-243.07479999999998,5.7791501656107265,0.10782327591413979,245.66390804034592,44.43493749999763,26.04764447951906
17:31:19:14,-0.13859558,0.75239563,5.260315,-0.1867981,-0.05496216,-0.064453125,31.799316,-16.200256,-242.99927,5.315658173553265,0.2051062517763445,245.60596493787827,44.43493749999762,26.047644636953198
17:31:19:15,-0.233161925,0.815841665,5.494949350000001,-0.287994385,-0.133255005,-0.0548706055,31.0493465,-15.4502865,-242.099765,5.560788010600486,0.32519234142993997,244.57296747197285,44.434937499997616,26.04764479438733
17:31:19:16,-0.32772827,0.8792877,5.7295837,-0.38919067,-0.21154785,-0.045288086,30.299377,-14.700317,-241.20026,5.805917847647707,0.44527843108353543,243.5399700060674,44.4349374999976,26.047644951821468
17:31:19:17,-0.486946105,0.69612885,6.54959865,-0.494117735,-0.20941925,0.007972716999999997,30.674743499999998,-14.700317,-242.47512999999998,6.610784117638999,0.5410625304686324,244.84950315178236,44.434937499997595,26.047645109255605
17:31:19:18,-0.64616394,0.51297,7.3696136,-0.5990448,-0.20729065,0.06123352,31.05011,-14.700317,-243.75,7.415650387630291,0.6368466298537293,246.1590362974973,44.43493749999759,26.04764526668974
17:31:19:19,-0.61743164,0.5871887,7.609024,-0.6182251,-0.1998291,0.097457886,30.2253725,-14.400482,-243.07479999999998,7.656582699354639,0.6569870493551673,245.3709647674532,44.43493749999758,26.047645424123875
17:31:19:20,-0.41871643,0.89364624,8.310532,-0.62887573,-0.19877625,0.18267822,29.400635,-14.100647,-242.3996,8.368922820413752,0.6843741764630397,244.58289323740905,44.434937499997574,26.04764558155801
17:31:19:21,-0.17690277,1.03969572,8.7905735,-0.6251525849999999,-0.238716125,0.20664978,29.4754025,-13.2751465,-242.699435,8.857643077475672,0.7017040967645338,244.84434484339678,44.43493749999756,26.04764573899215
17:31:19:22,0.06491089,1.1857452,9.270615,-0.62142944,-0.278656,0.23062134,29.55017,-12.449646,-242.99927,9.346363334537589,0.7190340170660281,245.1057964493845,44.43493749999755,26.047645896426282
17:31:19:23,0.15110015999999998,1.2408065499999998,9.4417955,-0.618759155,-0.287185665,0.23115539499999999,28.424835,-12.825012000000001,-242.099765,9.524596086394833,0.7203123291014037,244.1023512301053,44.434937499997545,26.04764605386042
17:31:19:24,0.23728943,1.2958679,9.612976,-0.61608887,-0.29571533,0.23168945,27.2995,-13.200378,-241.20026,9.702828838252076,0.7215906411367794,243.0989060108261,44.43493749999754,26.047646211294555
17:31:19:25,0.23728943,1.3724823,10.156464,-0.6278076,-0.25416565,0.21783447,27.2995,-12.950134,-241.5501933333333,10.251525492369367,0.7114734124181054,243.43297131198642,44.434937499997524,26.047646368728692
17:31:19:26,0.002662660000000011,1.32100675,10.666428,-0.6107635499999999,-0.221138,0.244995115,27.2995,-12.69989,-241.90012666666667,10.751090624490214,0.6955738385822492,243.76703661314676,44.43493749999752,26.047646526162826
17:31:19:27,-0.23196411,1.2695312,11.176392,-0.5937195,-0.18811035,0.27215576,27.2995,-12.449646,-242.25006,11.250655756611058,0.6796742647463931,244.10110191430707,44.43493749999751,26.047646683596962
17:31:19:28,-0.43307495,1.1378479,11.6384735,-0.5639038,-0.17427063,0.30519104,26.550293,-9.449768,-240.75012,11.70197919866781,0.6644541511882656,242.39396950760568,44.4349374999975,26.0476468410311
17:31:19:29,-0.6030731,0.912796,12.373489,-0.521286,-0.15829468,0.3403473,26.9248965,-9.9746705,-241.65039000000002,12.421760090046845,0.6423648372456204,243.35091060134562,44.434937499997496,26.047646998465233
17:31:19:30,-0.553993215,0.8433685200000001,12.4812315,-0.40837097,-0.10928345,0.42662048,27.2995,-10.499573,-242.55066,12.522302003997565,0.6005953342626579,244.30785169508556,44.43493749999748,26.04764715589937
17:31:19:31,-0.50491333,0.77394104,12.588974,-0.20277405,-0.013412476,0.63009644,26.899719666666666,-10.649617666666666,-242.10052666666667,12.622843917948284,0.6620564428857457,243.8236561774505,44.434937499997474,26.047647313333506
17:31:19:32,0.19779205499999997,0.89484407,12.397438000000001,-0.06535339500000001,-0.022468568,0.7344894449999999,26.499939333333334,-10.799662333333334,-241.6503933333333,12.45199769428205,0.7523093802519352,243.33946065981542,44.43493749999747,26.04764747076764
17:31:19:33,0.90049744,1.0157471,12.205902,0.07206726,-0.03152466,0.83888245,26.100159,-10.949707,-241.20026,12.281151470615814,0.8425623176181247,242.85526514218034,44.43493749999746,26.047647628201776
17:31:19:34,1.4739074699999999,1.1605987500000001,12.004791,0.13545226999999999,-0.18758393,0.8021316549999999,25.949859500000002,-10.72464,-242.47512999999998,12.165992136583972,0.8523944773456097,244.09580369687154,44.43493749999745,26.047647785635913
17:31:19:35,2.0473175,1.3054504,11.80368,0.19883728,-0.3436432,0.76538086,25.79956,-10.499573,-243.75,12.05083280255213,0.8622266370730947,245.33634225156274,44.43493749999744,26.047647943070046
17:31:19:36,2.12991335,1.16299435,12.01556375,0.186050415,-0.4325943,0.70892333,23.249817,-9.599304,-242.84973,12.259339077791786,0.8576521450779897,244.14891355255054,44.43493749999743,26.047648100504183
17:31:19:37,2.2125092,1.0205383,12.2274475,0.17326355,-0.5215454,0.6524658,23.249817,-9.849548333333333,-243.19966666666667,12.467845353031445,0.8530776530828847,244.50717558409104,44.434937499997424,26.04764825793832
17:31:19:38,2.33461,0.72366333,13.280899,0.1381073,-0.5204773,0.54273987,23.249817,-10.099792666666668,-243.54960333333332,13.503939081449074,0.7645500720137282,244.86543761563158,44.43493749999742,26.047648415372457
17:31:19:39,2.3801117,0.4650879,13.898605,0.15408325,-0.37986755,0.46603394,23.249817,-10.350037,-243.89954,14.108595231461859,0.6206678956619945,245.22369964717208,44.4349374999974,26.04764857280659
17:31:19:40,2.3633423,0.14665222,14.013519,0.20309448,-0.13911438,0.38508606,23.474884,-9.9746705,-244.64951000000002,14.212164102062754,0.45704644417780826,245.9758833776949,44.434937499997396,26.047648730240727
17:31:19:41,2.1382904,-0.22683716,13.584961,0.259552,0.15596008,0.3169098,23.699951,-9.599304,-245.39948,13.75408689457101,0.4383179309515485,246.72806710821777,44.43493749999739,26.047648887674864
17:31:19:42,1.7624054,-0.29866028,12.708679,0.28511047,0.4265442,0.2753601,23.650105666666665,-9.299723333333333,-245.94981333333334,12.833775464836519,0.5822809625337848,247.2596772866145,44.43493749999738,26.047649045108997
17:31:19:43,1.2261047,-0.1598053,11.746216,0.25422668,0.60124207,0.23913574,23.600260333333335,-9.000142666666667,-246.50014666666667,11.81111598401803,0.6952043826868864,247.79128746501124,44.434937499997375,26.047649202543134
17:31:19:44,0.7137451,-0.023330688,11.118927,0.17219543,0.6683502,0.21464539,23.550415,-8.700562,-247.05048,11.141836205047422,0.7227834387983562,248.32289764340797,44.43493749999736,26.04764935997727
17:31:19:45,0.38813782,-0.023330688,10.905853,0.11894226,0.66090393,0.20932007,22.4998475,-9.149933,-248.25058,10.912782639910223,0.7033890513849057,249.43900068382453,44.43493749999735,26.047649517411408
17:31:19:46,0.21813965,-0.23162842,10.972885,-0.030197144,0.58740234,0.21144104,21.44928,-9.599304,-249.45068,10.977497066958334,0.6250285512994698,250.55510372424112,44.434937499997346,26.04764967484554
17:31:19:47,-0.11225891,-0.49739075,11.138092,-0.104766846,0.54585266,0.22315979,20.69931,-9.824371,-249.075315,11.14975753196113,0.5989419924522803,250.12809501327584,44.43493749999734,26.047649832279678
17:31:19:48,-0.318161,-0.7272339,11.537918,-0.13459778,0.47128296,0.25831604,19.94934,-10.049438,-248.69995,11.565191193488943,0.554031919016018,249.70108630231056,44.43493749999733,26.047649989713815
17:31:19:49,-0.59828186,-0.8876343,12.086182,-0.11116028,0.3519745,0.31796265,20.749409333333332,-9.699503333333334,-249.09973,12.133492125998416,0.487178512759903,250.1534117707066,44.43493749999732,26.047650147147948
17:31:19:50,-0.640182495,-1.1641693,12.6129075,-0.02327728500000001,0.21668244,0.40744781500000005,21.549478666666666,-9.349568666666666,-249.49951000000001,12.68472954837748,0.497430091517262,250.60573723910267,44.43493749999731,26.047650304582085
17:31:19:51,-0.68208313,-1.4407043,13.139633,0.06460571,0.08139038,0.49693298,22.349548,-8.999634,-249.89929,13.235966970756541,0.507681670274621,251.05806270749872,44.434937499997304,26.04765046201622
17:31:19:52,-0.48335266,-1.7926483,13.419754,0.20735168,0.021743774,0.5970764,20.84961,-8.700562,-250.34943,13.547583369071326,0.6324300264405109,251.36675022284243,44.4349374999973,26.047650619450355
17:31:19:53,-0.10746765,-2.0057373,13.347931,0.35009766,0.015350342,0.6918793,21.299743999999997,-9.000397,-250.949865,13.498214452036567,0.7755649362274462,252.01340414090288,44.43493749999728,26.047650776884492
17:31:19:54,0.36180115,-2.056015,13.106125,0.47898865,0.043045044,0.75579834,21.749878,-9.300232,-251.5503,13.271345458090952,0.8958315318119474,252.6600580589633,44.434937499997275,26.04765093431863
17:31:19:55,0.6347351,-1.9841766,12.876282,0.53118896,0.06541443,0.77923584,21.2249755,-9.300232,-252.52533499999998,13.043714331841354,0.9453302350071177,253.58707689677667,44.43493749999727,26.047651091752762
17:31:19:56,1.3266602,-1.8955994,11.94014,0.61535645,0.12294006,0.7952118,20.700073,-9.300232,-253.50037,12.162247637305548,1.0129855012628,254.51409573459003,44.43493749999726,26.0476512491869
17:31:19:57,1.6905823,-1.8213806,11.482849,0.6164093,0.13040161,0.7813568,20.850372,-9.8251345,-253.50037,11.748672987190114,1.003734752772525,254.54666747400972,44.434937499997254,26.047651406621036
17:31:19:58,1.9108429,-1.8309479,11.1285095,0.57380676,0.16555786,0.703598,21.000671,-10.350037,-253.50037,11.43885547126919,0.9228833883180892,254.5792392134294,44.43493749999724,26.047651564055172
17:31:19:59,1.8390198,-1.7974396,10.889084,0.52160645,0.2124176,0.63009644,21.2249755,-10.350037,-253.87497000000002,11.188607299369131,0.8451130392864827,254.97090124541523,44.43493749999723,26.047651721489306
17:31:19:60,1.6211395,-1.8908081,10.719101,0.47579956,0.2539673,0.5587158,21.44928,-10.350037,-254.24957,11.00465241603236,0.7765616240422415,255.36256327740108,44.434937499997226,26.047651878923443
17:31:19:61,1.3649597,-2.012909,10.496445,0.42892456,0.32640076,0.5118408,20.8496095,-9.9746705,-254.39987000000002,10.774519723074903,0.7432998983212706,255.4486441709774,44.43493749999721,26.047652088835623
17:31:19:62,1.0680847,-2.0631866,10.345612,0.38739014,0.42015076,0.47988892,20.249939,-9.599304,-254.55017,10.603265135199518,0.7462514035072655,255.5347250645537,44.434937499997204,26.047652298747806
17:31:19:63,0.77838135,-2.0584106,10.161255,0.3618164,0.5245514,0.46923828,20.249939,-9.999593,-255.29988666666668,10.396828117231005,0.7913594897189762,256.2974155950838,44.43493749999719,26.047652508659986
17:31:19:64,0.5700912499999999,-1.9973526000000001,9.835640000000001,0.36980438,0.6092376749999999,0.48468779,20.249939,-10.399882,-256.0496033333334,10.05435661260941,0.8632251529508472,257.06010612561386,44.434937499997176,26.047652718572166
17:31:19:65,0.36180115,-1.9362946,9.510025,0.37779236,0.69392395,0.5001373,20.249939,-10.800171,-256.79932,9.711885107987815,0.9350908161827182,257.82279665614396,44.43493749999717,26.047652928484347
17:31:19:66,0.18223572,-1.8572845,9.059921,0.4044342,0.74824524,0.5352783,20.700073,-11.849976,-258.59985,9.25012886925502,1.004968069026667,259.6975112961778,44.434937499997154,26.04765313839653
17:31:19:67,0.019424438,-1.8046112,8.554749,0.4310608,0.7802124,0.5800171,20.9999085,-12.149811,-258.899685,8.743038907894556,1.0634682123612393,260.0342617040832,44.43493749999715,26.04765334830871
17:31:19:68,0.06730652,-1.6992798,8.123779,0.46194458,0.7706146,0.63967896,21.299744,-12.449646,-259.19952,8.299871519919062,1.1029183236265585,260.3710121119885,44.43493749999713,26.04765355822089
17:31:19:69,0.19419861,-1.6513824,7.664093,0.49923706,0.74398804,0.6886749,21.374512000000003,-12.525177,-259.42458999999997,7.842391117752588,1.130057062112571,260.60482536177733,44.43493749999712,26.04765376813307
17:31:19:70,0.43362427,-1.5652008,7.089493,0.5354614,0.71736145,0.7248993,21.44928,-12.600708,-259.64966,7.273155748978752,1.1518703729051079,260.83863861156624,44.43493749999711,26.047653978045254
17:31:19:71,0.4982605,-1.52211,6.8405,0.5471802,0.69285583,0.73342896,21.524811,-12.525177,-260.32486,7.02549091722139,1.1477688843158758,261.5133693042917,44.4349374999971,26.047654187957434
17:31:19:72,0.7927551,-1.3975983,6.122238,0.54397583,0.5618286,0.7430115,21.600342,-12.449646,-261.00006,6.329576588159977,1.0787155178889376,262.1880999970172,44.43493749999708,26.047654397869614
17:31:19:73,0.9316101,-1.28508,5.8876038,0.5237427,0.5085602,0.74087524,22.350311,-12.974548500000001,-261.75003000000004,6.097803415214076,1.040113462114777,263.0240580646986,44.434937499997076,26.047654607781794
17:31:19:74,1.1111755,-0.9044037,5.5308685,0.40016174,0.36795044,0.7003937,23.10028,-13.499451,-262.5,5.713419589761125,0.8866049173423929,263.86001613237994,44.43493749999706,26.047654817693978
17:31:19:75,1.2979279,-0.6841278,5.7008514,0.28085327,0.26782227,0.6418152,23.050435,-13.449605666666667,-262.54984666666667,5.886625040310722,0.7500227186750318,263.90272391660056,44.43493749999705,26.047655027606158
17:31:19:76,1.19497685,-0.58716583,6.0156860000000005,0.1849823,0.24385070999999997,0.56298066,23.000590000000003,-13.399760333333333,-262.59969333333333,6.164659724325105,0.6445874781101855,263.94543170082113,44.43493749999704,26.047655237518338
17:31:19:77,1.0920258,-0.49020386,6.3305206,0.08911133,0.21987915,0.48414612,22.950745,-13.349915,-262.64954,6.442694408339487,0.5391522375453391,263.98813948504176,44.43493749999703,26.04765544743052
17:31:19:78,0.9196472,-0.48062134,6.3927765,0.053955078,0.23905945,0.4511261,23.10028,-13.499451,-263.25073,6.476444952586525,0.5133958795875737,264.606887587819,44.43493749999702,26.047655657342702
17:31:19:79,0.5581207,-0.3872528,6.737549,-0.029129028,0.26568604,0.3968048,22.350311,-14.4744875,-263.025665,6.7717080544185695,0.4784261922451011,264.3729500460186,44.434937499997005,26.047655867254882
17:31:19:80,0.66825867,-0.3369751,7.082306,-0.05470276,0.23052979,0.39892578,21.600342,-15.449524,-262.8006,7.121739966166006,0.46398076897396306,264.1390125042182,44.43493749999699,26.047656077167062
17:31:19:81,0.804718,-0.21487427,7.4917145,-0.05470276,0.15916443,0.40745544,22.050476000000003,-15.14968875,-262.72506999999996,7.537872920190568,0.4408465076582053,264.08425586513073,44.434937499996984,26.047656287079246
17:31:19:82,1.0321655,0.022155762,7.8269043,-0.025939941,0.07926941,0.40745544,22.50061,-14.8498535,-262.64954,7.894699957473908,0.41590438262469076,264.02949922604324,44.43493749999697,26.047656496991426
17:31:19:83,1.3434143,0.43395996,8.14772,0.02519226,0.0057678223,0.3968048,22.50061,-14.8498535,-262.64954,8.269124767877656,0.3976455293864524,264.02949922604324,44.434937499996956,26.047656706903606
17:31:19:84,1.50383,0.5584564,8.375183,0.07418823,-0.08691406,0.36376953,22.50061,-14.8498535,-262.64954,8.527430357563171,0.3812954474585783,264.02949922604324,44.43493749999695,26.047656916815786
17:31:19:85,1.8773193,0.7356262,8.600235,0.1253357,-0.18917847,0.28814697,22.425079,-14.174652250000001,-263.84964,8.833431706619116,0.3667781448317386,265.18109497397734,44.434937499996934,26.04765712672797
17:31:19:86,2.1311035,0.8553467,8.806137,0.16368103,-0.24884033,0.1816101,22.349548,-13.499451,-265.04974,9.100619152985258,0.3488484167061387,266.3326907219114,44.43493749999693,26.04765733664015
17:31:19:87,2.2244873,0.86491394,8.794159,0.1764679,-0.28611755,0.055908203,21.974944999999998,-13.499451,-265.20004,9.112280306748065,0.34077837271620054,266.4513903678262,44.43493749999691,26.04765754655233
17:31:19:88,2.188568,0.8816681,8.717545,0.14556885,-0.27120972,-0.07084656,21.600342,-13.499451,-265.35034,9.031210292989893,0.3158547726038574,266.570090013741,44.4349374999969,26.04765775646451
17:31:19:89,1.9323883,0.87210083,8.588257,0.06567383,-0.23605347,-0.1795044,21.600342,-14.4744875,-264.45007,8.846063683792503,0.3037369293735449,265.72725848730084,44.43493749999689,26.047657966376693
17:31:19:90,1.709732,0.8409729,8.669662,-0.06642151,-0.21582031,-0.26579285,21.600342,-15.449524,-263.5498,8.876567924857131,0.3487636195337735,264.8844269608607,44.43493749999688,26.047658176288873
17:31:19:91,1.4344025,0.6422577,9.474121,-0.2144928,-0.17427063,-0.32331848,21.450043,-15.224457000000001,-264.824675,9.603591734755103,0.42533781073629856,266.12806847735976,44.43493749999686,26.047658386201054
17:31:19:92,1.3410187,0.5273285,9.797333,-0.34977722,-0.11354065,-0.3552704,21.299744,-14.99939,-266.09955,9.902733986811468,0.5113243979603466,267.3717099938588,44.434937499996856,26.047658596113237
17:31:19:93,1.254837,0.30706787,10.472504,-0.43606567,-0.08798218,-0.36273193,20.549774499999998,-14.99939,-266.09955,10.551883557136676,0.5739935414197848,267.31405607047964,44.43493749999684,26.047658806025417
17:31:19:94,1.2500458,0.20890808,11.224274,-0.4509735,-0.10821533,-0.36593628,19.799805,-14.99939,-266.09955,11.295600201629966,0.5907596942662027,267.2564021471004,44.43493749999683,26.047659015937597
17:31:19:95,1.338623,0.05328369,12.059845,-0.3860016,-0.14230347,-0.37445068,19.6502685,-15.449524,-266.400145,12.134027036057486,0.5562920316965391,267.5706909615618,44.43493749999682,26.047659225849777
17:31:19:96,1.2093353,-0.07600403,12.258575,-0.24964905,-0.09223938,-0.38935852,19.500732,-15.899658,-266.70074,12.318316829462837,0.4716278283618104,267.8849797760233,44.434937499996806,26.04765943576196
17:31:19:97,0.88612366,-0.0017852783,11.973663,-0.10583496,-0.03578186,-0.38616943,19.350433,-16.275024000000002,-265.95001,12.006407621166266,0.4020052349532106,267.14960188403876,44.4349374999968,26.04765964567414
17:31:19:98,0.6275482,0.17778015,11.511581,0.017730713,-0.016601562,-0.36698914,19.200134,-16.65039,-265.19928,11.530044216941159,0.36779208654111606,266.41422399205425,44.434937499996785,26.04765985558632
17:31:19:99,0.5126343,0.24003601,10.989639,0.092300415,-0.052825928,-0.3478241,19.125366,-16.7999265,-265.87448,11.004207220965725,0.36371905341766664,267.09040211119463,44.43493749999677,26.0476600654985
17:31:20:00,0.6826172,0.08201599,10.522781,0.12106323,-0.13697815,-0.33822632,19.050598,-16.949463,-266.54968,10.545217533949335,0.3844689360354069,267.76658023033497,44.434937499996764,26.047660275410685
17:31:20:01,0.8023224,-0.20289612,10.058304,0.104019165,-0.25628662,-0.33184814,18.675232,-17.324829,-266.69998,10.092292476215144,0.43200232209998735,267.9143069869483,44.43493749999675,26.047660485322865
17:31:20:02,0.81669617,-0.32260132,9.840424,0.028396606,-0.372406,-0.34249878,18.299866,-17.700195,-266.85028,9.879524722654143,0.5067524152579913,268.06203374356164,44.434937499996735,26.047660695235045
17:31:20:03,0.7927551,-0.16937256,9.632126,-0.102645874,-0.4459076,-0.35954285,18.374634,-17.549896,-266.24984,9.66617809646258,0.5819285387168311,267.45958402503334,44.43493749999673,26.047660905147225
17:31:20:04,0.74487305,0.13948059,10.029572,-0.2890625,-0.5023651,-0.38298035,18.449402,-17.399597,-265.6494,10.0581611241214,0.6946954520438309,266.857134306505,44.434937499996714,26.04766111505941
17:31:20:05,0.7520447,0.25439453,10.47728,-0.49891663,-0.5534973,-0.41812134,18.374634,-18.0747985,-265.874475,10.507315737432279,0.8544603675778313,267.12170282765845,44.43493749999671,26.04766132497159
17:31:20:06,0.71614075,0.29508972,11.616928,-0.68214417,-0.5385895,-0.47459412,18.299866,-18.75,-266.09955,11.642720973803513,0.9902721327563516,267.38627134881193,44.43493749999669,26.04766153488377
17:31:20:07,0.57966614,0.12750244,12.806839,-0.7918701,-0.43525696,-0.5342407,16.950226,-18.2250975,-266.699975,12.82058481029588,1.0497237741610608,267.8629711691451,44.43493749999668,26.047661744795953
17:31:20:08,0.38095093,-0.025726318,13.692703,-0.80996704,-0.2893219,-0.58218384,15.600586,-17.700195,-267.3004,13.698025438022617,1.0386008816013574,268.33967098947824,44.43493749999667,26.047661954708133
17:31:20:09,0.06730652,-0.32022095,14.410965,-0.7343445,-0.14230347,-0.59495544,16.2750245,-18.675232,-267.375175,14.414679457264334,0.9557636202743252,268.52281566522436,44.43493749999666,26.047662164620313
17:31:20:10,0.03857422,-0.62428284,14.750931,-0.5617676,-0.04750061,-0.56832886,16.949463,-19.650269,-267.44995,14.764185802187944,0.800522852558896,268.70596034097053,44.43493749999664,26.047662374532493
17:31:20:11,0.22772217,-0.85173035,14.47081,-0.30610657,0.019607544,-0.51612854,15.9744265,-19.875336,-267.224885,14.49764270603744,0.6003951680197038,268.44055582644125,44.434937499996636,26.047662584444677
17:31:20:12,0.56051636,-0.8182068,12.921768,-0.041915894,0.05583191,-0.47459412,14.99939,-20.100403,-266.99982,12.959773501231336,0.47970170218860153,268.17515131191203,44.43493749999662,26.047662794356857
17:31:20:13,0.74487305,-0.60272217,11.719879,0.1530304,0.01109314,-0.45220947,15.299987999999999,-20.175171,-266.92505,11.758982679188996,0.4775298585815347,268.12349458174765,44.43493749999661,26.047663004269037
17:31:20:14,0.9100647,-0.344162,10.716705,0.23078918,-0.09863281,-0.45648193,15.600586,-20.249939,-266.85028,10.760782095064238,0.5209297737988234,268.0718378515832,44.4349374999966,26.047663214181217
17:31:20:15,0.9699249,-0.2675476,10.395889,0.19670105,-0.24563599,-0.48524475,15.525055,-19.950104000000003,-267.67502,10.444464760351618,0.5783518047494492,268.8663142226761,44.434937499996586,26.0476634240934
17:31:20:16,0.92681885,-0.33218384,10.336029,0.08378601,-0.3755951,-0.5331726,15.449524,-19.650269,-268.49976,10.382814395582416,0.6575445201706802,269.660790593769,44.43493749999658,26.04766363400558
17:31:20:17,0.8406372,-0.55244446,10.762192,-0.050445557,-0.43844604,-0.5704651,14.4744875,-21.1502075,-268.12515499999995,10.809099982342312,0.7212559285931256,269.3532756150902,44.434937499996565,26.04766384391776
17:31:20:18,0.81430054,-0.6721649,11.068649,-0.14950562,-0.47253418,-0.58644104,13.499451,-22.650146,-267.75055,11.118897504134,0.7678239219222974,269.04576063641144,44.43493749999655,26.04766405382994
17:31:20:19,0.90049744,-0.8397522,11.6384735,-0.18040466,-0.43844604,-0.5811157,13.424683,-22.350310999999998,-267.52547500000003,11.703424490594777,0.749984151917817,268.79308137049975,44.43493749999654,26.047664263742124
17:31:20:20,0.9794922,-0.9953766,12.031128,-0.11755371,-0.35429382,-0.553421,13.349915,-22.050476,-267.3004,12.111904082268502,0.6675460949372384,268.540402104588,44.43493749999653,26.047664473654304
17:31:20:21,1.0680847,-1.0289001,11.997604,0.019866943,-0.23498535,-0.5097351,13.050079499999999,-22.575378,-267.75054,12.088918151884814,0.5616428423035388,269.0179249761143,44.43493749999653,26.047664518635486
17:31:20:22,1.0704803,-0.91397095,11.686356,0.20628357,-0.102890015,-0.46499634,12.750244,-23.10028,-268.20068,11.770819322751835,0.5189998676801765,269.4954478476405,44.43493749999652,26.047664563616667
17:31:20:23,1.1734314,-0.83496094,10.994431,0.40016174,0.026000977,-0.4298401,12.450409,-23.175048500000003,-267.37518,11.08835488409316,0.5878503045272598,268.6664701350634,44.43493749999652,26.04766460859785
17:31:20:24,1.4320068,-0.68652344,9.478897,0.56954956,0.15489197,-0.40107727,12.150574,-23.249817,-266.54968,9.61100651573625,0.7136113789572918,267.83749242248626,44.43493749999652,26.04766465357903
17:31:20:25,1.5014343,-0.60272217,8.854019,0.6782074,0.29338074,-0.4000244,12.850443666666667,-23.899841333333335,-266.69972666666666,9.000623946359884,0.8402720134653228,268.0798998915699,44.434937499996515,26.04766469856021
17:31:20:26,1.4870758,-0.47583008,7.733536,0.7101593,0.34983826,-0.40853882,13.550313333333333,-24.549865666666665,-266.84977333333336,7.889574624989262,0.8908518434528325,268.32230736065344,44.434937499996515,26.047664743541393
17:31:20:27,1.393692,-0.33937073,6.723175,0.70376587,0.45210266,-0.44795227,14.250183,-25.19989,-266.99982,6.87449139674127,0.9488648223820321,268.56471482973706,44.434937499996515,26.047664788522574
17:31:20:28,1.0297699,-0.22444153,5.5548096,0.5940399,0.48086548,-0.473526,14.8498535,-25.79956,-268.04962,5.653911012705002,0.8990783532727503,269.69748650536116,44.43493749999651,26.047664833503756
17:31:20:29,0.9316101,-0.16220093,5.3177795,0.5418396,0.46488953,-0.4767151,14.649963333333334,-26.09965,-268.19966666666664,5.401202211613182,0.85846940178424,269.86500935887693,44.43493749999651,26.04766487848494
17:31:20:30,0.7712097,-0.12628174,5.0089264,0.48005676,0.4308014,-0.473526,14.450073166666666,-26.399739999999998,-268.34971333333334,5.069522182597535,0.8001694893831292,270.0325322123927,44.43493749999651,26.047664923466122
17:31:20:31,0.67063904,0.08918762,5.260315,0.2915039,0.2859192,-0.44155884,14.250183,-26.69983,-268.49976,5.3036426211386445,0.6014137692354538,270.2000550659085,44.4349374999965,26.047664968447304
17:31:20:32,0.78796387,0.2519989,5.698456,0.1892395,0.16448975,-0.41386414,13.949585,-28.9505,-268.9499,5.758193405050111,0.4838925424030134,270.8630116533674,44.4349374999965,26.047665013428485
17:31:20:33,0.859787,0.26875305,5.880417,0.117874146,0.047302246,-0.40534973,13.949585,-29.925537,-268.350225,5.9490138662758465,0.4247825565897766,270.37574747902704,44.434937499996494,26.047665058409667
17:31:20:34,1.0058289,0.3717041,6.158142,0.06674194,-0.034713745,-0.4234619,13.949585,-30.900574,-267.75055,6.250805436597433,0.4300924451771952,269.88848330468676,44.434937499996494,26.047665103390848
17:31:20:35,1.0632935,0.58239746,6.6657104,0.008148193,-0.08052063,-0.46499634,14.39971925,-30.750275000000002,-267.675025,6.775062730722488,0.47198682303445477,269.8204525648149,44.434937499996494,26.04766514837203
17:31:20:36,0.9459839,0.55366516,6.9865417,-0.05470276,-0.07839966,-0.5150604,14.8498535,-30.599976,-267.5995,7.0720008183183865,0.5238569597589529,269.7524218249431,44.43493749999649,26.04766519335321
17:31:20:37,0.6754303,0.536911,7.300186,-0.13139343,-0.032592773,-0.56300354,14.25018325,-30.825043,-268.349465,7.350999601868788,0.5790505231424335,270.4905068610368,44.43493749999649,26.047665238334393
17:31:20:38,0.3210907,0.5225525,7.6808624,-0.20596313,0.03239441,-0.58644104,13.650513,-31.05011,-269.09943,7.705310348105162,0.6224012388443058,271.22859189713046,44.43493749999649,26.047665283315574
17:31:20:39,0.2013855,0.56803894,7.9035187,-0.27734375,0.06434631,-0.5715332,13.950348,-31.500244000000002,-268.79959499999995,7.926464041312259,0.6385218884086266,270.99894748810823,44.43493749999648,26.047665328296755
17:31:20:40,-0.08113098,0.78590393,8.849228,-0.32954407,0.07394409,-0.5257263,14.250183,-31.950378,-268.49976,8.884428142491176,0.6248641172525295,270.76930307908606,44.43493749999648,26.047665373277937
17:31:20:41,-0.10028076,0.8385773,9.237091,-0.35191345,0.061157227,-0.4586029,14.450073166666666,-32.00022366666667,-268.4499133333333,9.275619562119958,0.5812915813889291,270.7365187761168,44.43493749999648,26.04766541825912
17:31:20:42,0.0816803,0.92477417,10.144485,-0.29118347,0.056900024,-0.36805725,14.649963333333334,-32.05006933333333,-268.40006666666665,10.186876599435779,0.47274894522357636,270.70373447314745,44.43493749999647,26.0476654632403
17:31:20:43,0.16786194,0.9702606,10.546722,-0.2464447,0.06967163,-0.3435669,14.8498535,-32.099915,-268.35022,10.592588362062266,0.4285176086936882,270.6709501701782,44.43493749999647,26.04766550822148
17:31:20:44,0.3091278,0.9559021,10.750229,-0.067489624,0.12826538,-0.28071594,16.349792,-33.299255,-269.40002,10.79707054593783,0.31592451000878263,271.9421388052956,44.43493749999647,26.047665553202663
17:31:20:45,0.33306885,0.9104004,10.788528,-0.00036621094,0.1570282,-0.26367188,16.299946666666667,-33.249410000000005,-269.59991333333335,10.831994283323107,0.3068889864567104,272.13111403439825,44.434937499996465,26.047665598183844
17:31:20:46,0.33306885,0.80267334,10.618546,0.12852478,0.22201538,-0.2263794,16.250101333333333,-33.199565,-269.79980666666665,10.654047986737393,0.34213605594113117,272.32008926350085,44.434937499996465,26.047665643165026
17:31:20:47,0.10800171,0.76675415,10.158859,0.2276001,0.21455383,-0.16139221,16.200256,-33.14972,-269.9997,10.188326284419151,0.35196959660794996,272.5090644926035,44.434937499996465,26.04766568814621
17:31:20:48,0.1151886,0.81463623,10.039139,0.2361145,0.13891602,-0.10067749,16.349792,-32.850647,-271.3501,10.072795662680724,0.2918624242954041,273.8199362295811,44.43493749999646,26.047665733127392
17:31:20:49,0.2995453,0.90083313,10.268997,0.22439575,0.028137207,-0.041030884,15.3747555,-32.700348500000004,-270.60013000000004,10.312784643386417,0.2298449226710149,273.00365506821527,44.43493749999646,26.047665778108573
17:31:20:50,0.6562805,0.98461914,10.800507,0.20948792,-0.093307495,-0.0048065186,14.399719,-32.55005,-269.85016,10.865133703852134,0.2293786822487076,272.1873739068495,44.43493749999646,26.047665823089755
17:31:20:51,1.0154114,0.9894104,11.578613,0.21907043,-0.17427063,-0.011199951,14.599609333333333,-33.70005333333333,-269.80031333333335,11.665087751690818,0.280156286175028,272.29351558018254,44.43493749999645,26.047665868070936
17:31:20:52,1.1590576,0.8912506,12.316025,0.23292542,-0.18598938,-0.029312134,14.799499666666666,-34.85005666666667,-269.7504666666667,12.402508373419593,0.29950876774243984,272.3996572535156,44.43493749999645,26.047665913052118
17:31:20:53,1.2237091,0.59677124,13.04866,0.2819214,-0.15402222,-0.078308105,14.99939,-36.00006,-269.70062,13.119494184987238,0.33065794915649527,272.5057989268487,44.43493749999645,26.0476659580333
17:31:20:54,1.1877899,0.14425659,13.333572,0.42253113,0.08459473,-0.13264465,14.92462175,-36.524963,-269.92569000000003,13.387150446957875,0.4508696345247396,272.79469146148534,44.434937499996444,26.04766600301448
17:31:20:55,1.0249939,-0.43753052,13.1132965,0.5397186,0.35411072,-0.14009094,14.8498535,-37.049866,-270.15076,13.16056953736733,0.6605422323174818,273.083583996122,44.434937499996444,26.047666047995662
17:31:20:56,0.77838135,-0.80145264,12.380676,0.5887146,0.49578857,-0.13264465,15.37475575,-36.824798,-269.77539,12.430983150063666,0.7810158702417176,272.7114565131341,44.434937499996444,26.047666092976844
17:31:20:57,0.6131897,-0.9044037,11.511581,0.6355896,0.82281494,-0.059127808,15.899658,-36.59973,-269.40002,11.563323258489351,1.041390734928177,272.33932903014625,44.43493749999644,26.047666137958025
17:31:20:58,0.641922,-0.78707886,10.7574005,0.5748749,0.87075806,0.0015869141,15.82489,-36.674499,-270.075225,10.805240511128993,1.043409444082875,273.0129785522737,44.43493749999644,26.047666182939206
17:31:20:59,0.8478241,-0.506958,10.180405,0.52160645,0.8324127,0.023956299,15.750122,-36.749268,-270.75043,10.228218715022173,0.9826281575777635,273.6866280744012,44.43493749999643,26.047666227920388
17:31:20:60,1.0704803,-0.16220093,10.051117,0.29364014,0.46809387,0.036743164,17.475127999999998,-37.724304000000004,-270.00046499999996,10.109262592398615,0.5537927979411862,273.1904040430966,44.43493749999643,26.04766627290157
17:31:20:61,1.4152374,0.13468933,10.448547,0.13066101,0.070739746,-0.0079956055,19.200134,-38.69934,-269.2505,10.5448173301003,0.14879630676087444,272.6941800117919,44.43493749999643,26.04766631788275
17:31:20:62,1.709732,0.3310089,11.351166,-0.0110321045,-0.37026978,-0.10813904,18.2998655,-39.149474999999995,-270.8252,11.483976661560192,0.38589567150082016,274.25338120387255,44.43493749999642,26.047666362863932
17:31:20:63,2.1071625,0.20172119,12.550659,-0.08772278,-0.7463074,-0.24023438,17.399597,-39.59961,-272.3999,12.727916819895636,0.7889122757060336,275.81258239595326,44.43493749999642,26.047666407845114
17:31:20:64,2.5884094,-0.3369751,13.577774,-0.10050964,-0.8773346,-0.31159973,17.399597,-39.824676999999994,-271.64993000000004,13.826400914016068,0.9364361055759023,275.10461143024986,44.43493749999642,26.0476664528263
17:31:20:65,2.815857,-0.6697693,14.094925,-0.071746826,-1.0626984,-0.47032166,17.399597,-40.049744,-270.89996,14.38904278662401,1.1643358451360972,274.3966404645464,44.434937499996416,26.04766649780748
17:31:20:66,3.1654053,-1.6873016,14.920929,0.104019165,-0.993454,-0.729187,15.899658,-40.35034,-268.80035,15.346038564583097,1.2367232987909207,272.2766556698445,44.434937499996416,26.04766654278866
17:31:20:67,2.9379578,-2.2212067,14.492355,0.26701355,-0.7420502,-0.86979675,16.5748595,-40.800475000000006,-269.92492500000003,14.953050146533005,1.174087356849653,273.494624450809,44.434937499996416,26.047666587769843
17:31:20:68,2.523758,-2.4965363,13.491592,0.38311768,-0.41075134,-0.96673584,17.250061,-41.25061,-271.0495,13.950810106737375,1.1180670840253208,274.7125932317735,44.43493749999641,26.047666632751024
17:31:20:69,2.116745,-2.4678192,12.002396,0.38311768,-0.081588745,-1.0274658,17.700195333333333,-41.20025666666667,-270.2997833333333,12.434960825822076,1.099600768555978,273.9949550412421,44.43493749999641,26.047666677732206
17:31:20:70,1.8054962,-2.328949,10.690369,0.26487732,0.16767883,-1.0722046,18.150329666666664,-41.149903333333334,-269.5500666666667,11.089085143914103,1.117093948126885,273.2773168507108,44.43493749999641,26.047666722713387
17:31:20:71,1.42482,-2.182907,10.012817,0.073135376,0.32321167,-1.1201324,18.600464,-41.09955,-268.80035,10.346579109954073,1.1681229217751914,272.55967866017943,44.4349374999964,26.04766676769457
17:31:20:72,1.0249939,-2.0991058,9.826065,-0.023803711,0.3839264,-1.1371765,18.0000305,-42.224885,-269.32525499999997,10.0999213382509,1.20047344386562,273.2114795760866,44.4349374999964,26.04766681267575
17:31:20:73,0.6538849,-2.1015015,9.890701,-0.23686218,0.4787445,-1.1467743,17.399597,-43.35022,-269.85016,10.132612707902698,1.2650657230891573,273.86328049199375,44.4349374999964,26.04766685765693
17:31:20:74,0.39770508,-2.170929,10.175613,-0.2698822,0.48086548,-1.1403809,17.8497315,-43.35022,-269.474795,10.41221407672104,1.2667030468177143,273.5228459438668,44.434937499996394,26.047666902638113
17:31:20:75,0.14871216,-2.1565704,10.273773,-0.2336731,0.43400574,-1.0903168,18.299866,-43.35022,-269.09943,10.498729582774148,1.1965595782821672,273.18241139573985,44.434937499996394,26.047666947619295
17:31:20:76,0.09843445,-2.1445923,10.347992,-0.118621826,0.34344482,-1.0370483,17.999268,-44.25049,-268.9499,10.568344425984142,1.0988606183321414,273.1595288906941,44.434937499996394,26.047666992600476
17:31:20:77,0.13433838,-2.1421967,10.134918,0.05609131,0.23266602,-0.9773865,18.699646333333334,-44.05009066666667,-268.90005,10.359711210673584,1.0062624321231548,273.12705539937036,44.43493749999639,26.047667037581657
17:31:20:78,0.15350342,-2.1302338,9.620163,0.24569702,0.13146973,-0.9092102,19.400024666666667,-43.84969133333333,-268.8502,9.85438965584288,0.9509545222181728,273.0945819080467,44.43493749999639,26.04766708256284
17:31:20:79,0.25405884,-2.0344696,8.885147,0.4044342,0.047302246,-0.8399658,20.100403,-43.649292,-268.80035,9.118632005905015,0.9334597312021148,273.06210841672294,44.43493749999639,26.04766712754402
17:31:20:80,0.5198059,-1.8165894,8.231522,0.49816895,-0.052825928,-0.78990173,20.100403,-45.374297999999996,-268.80035,8.445599425638843,0.9353649685925578,273.34844966501504,44.43493749999638,26.047667172525202
17:31:20:81,0.7113495,-1.4598541,7.702408,0.5194702,-0.14337158,-0.7749939,20.100403,-47.099304,-268.80035,7.871739395006739,0.9439386863970278,273.63479091330714,44.43493749999638,26.047667217506383
17:31:20:82,0.83584595,-1.2324066,7.3025665,0.48112488,-0.18492126,-0.78564453,20.84961,-46.650696,-267.3004,7.452847909811203,0.9396352218142543,272.1405841005647,44.43493749999638,26.04766726248757
17:31:20:83,1.0465393,-1.1246643,6.9865417,0.39057922,-0.20410156,-0.81866455,21.249898666666667,-46.650696,-267.9000766666667,7.153452258873185,0.9297425553974307,272.76100628116177,44.43493749999637,26.04766730746875
17:31:20:84,1.4367981,-1.2348022,7.034424,0.33518982,-0.2147522,-0.8453064,21.65018733333333,-46.650696,-268.49975333333333,7.285070093352873,0.9343519854516458,273.3814284617588,44.43493749999637,26.04766735244993
17:31:20:85,1.8102875,-1.3497162,7.2666626,0.16474915,-0.2424469,-0.94862366,22.050476,-46.650696,-269.09943,7.6094191628164,0.9928794640121872,274.00185064235586,44.434937499996366,26.047667397431113
17:31:20:86,2.0401306,-1.5005493,7.6186066,0.11894226,-0.24031067,-0.9933777,22.200012,-46.875,-268.724825,8.02850842886463,1.0289294116639132,273.6845813550442,44.434937499996366,26.047667442412294
17:31:20:87,2.2412415,-1.6226654,8.128571,0.031585693,-0.19450378,-1.1457062,22.349548,-47.099304,-268.35022,8.586610097338788,1.1625283106896875,273.3673120677326,44.434937499996366,26.047667487393475
17:31:20:88,2.2699738,-1.6825104,8.549957,0.027328491,-0.18066406,-1.2447662,21.5248105,-47.399902,-267.67502,9.00474247275532,1.2581054175459465,272.6916839242152,44.43493749999636,26.047667532374657
17:31:20:89,2.3753204,-1.8070068,8.868378,0.05076599,-0.18598938,-1.3513031,20.700073,-47.7005,-266.99982,9.357112210975478,1.3649869242168857,272.01605578069785,44.43493749999636,26.04766757735584
17:31:20:90,2.499817,-1.9243317,9.117386,0.08378601,-0.23498535,-1.4620819,21.9001765,-48.300169999999994,-266.92505,9.647738854162144,1.4832132997293253,272.145724014698,44.43493749999636,26.04766762233702
17:31:20:91,2.5429077,-2.1062927,9.306519,0.11254883,-0.2893219,-1.5771332,23.10028,-48.89984,-266.85028,9.874925032938405,1.6073965072427583,272.2753922486981,44.43493749999635,26.0476676673182
17:31:20:92,2.5931854,-2.3074036,9.399887,0.12106323,-0.32341003,-1.6932526,23.6251825,-49.349975,-266.625215,10.020309251956004,1.728107265354033,272.1820983259297,44.43493749999635,26.047667712299383
17:31:20:93,2.5884094,-2.439087,9.483688,0.10295105,-0.34684753,-1.8157501,24.150085,-49.80011,-266.40015,10.128639923352067,1.8514455307713522,272.08880440316136,44.43493749999635,26.047667757280564
17:31:20:94,2.4399567,-2.546814,9.550735,0.06248474,-0.35003662,-1.9382629,24.6002195,-49.575042999999994,-266.625215,10.181168365600083,1.9706072788839237,272.3088622625264,44.434937499996344,26.047667802261746
17:31:20:95,2.2388458,-2.613861,9.569885,0.006011963,-0.33831787,-2.0469208,25.050354,-49.349976,-266.85028,10.169926192294792,2.0746999509165396,272.5289201218914,44.434937499996344,26.047667847242927
17:31:20:96,2.0113983,-2.8029938,9.569885,-0.06535339,-0.32234192,-2.1438599,23.9250185,-49.874877999999995,-267.22488999999996,10.172767385392547,2.16894228825983,272.89302201744044,44.434937499996344,26.04766789222411
17:31:20:97,1.8773193,-2.9682007,9.665649,-0.14311218,-0.33085632,-2.2194977,22.799683,-50.39978,-267.5995,10.283934740206881,2.2485811172500725,273.25712391298947,44.43493749999634,26.04766793720529
17:31:20:98,1.7001495,-3.1286163,9.749451,-0.21235657,-0.35749817,-2.274887,24.0745545,-49.64981,-266.47492,10.37933249666745,2.3125767267583823,272.13187435943075,44.43493749999634,26.04766798218647
17:31:20:99,1.6139679,-3.1429749,10.065475,-0.28053284,-0.41607666,-2.3004456,25.349426,-48.89984,-265.35034,10.667566291328374,2.3545420828421357,271.006624805872,44.43493749999634,26.047668027167656
17:31:21:00,1.5971985,-3.068756,10.608963,-0.32740784,-0.4970398,-2.3121643,24.900055000000002,-50.099945,-266.02554,11.158781401717091,2.3875402000117183,271.84737699195466,44.43493749999633,26.047668072148838
17:31:21:01,1.7384644,-3.0807343,11.056686,-0.3252716,-0.5630951,-2.3110962,24.450684,-51.30005,-266.70074,11.60876770375994,2.4008422170282264,272.6881291780373,44.43493749999633,26.04766811713002
17:31:21:02,2.0784302,-3.1573486,11.351166,-0.27841187,-0.6429901,-2.306839,24.674988,-52.050019,-266.55044499999997,11.964016542856749,2.4109034841685197,272.70466501572173,44.43493749999633,26.0476681621112
