,ax,ay,az,gx,gy,gz,mx,my,mz,a_total,g_total,m_total,lat,long
19:07:58:50,1.0058289,0.0054016113,9.701569,0.22120667,0.06434631,-0.04208374,53.99933,-48.599243,-264.30054,9.753571756809956,0.23418770171700434,274.10324606781575,44.4349375,26.0476015
19:07:58:51,0.88612366,-0.17176819,9.811691,0.15408325,0.12080383,-0.0463562,53.249359999999996,-48.599243,-264.30054,9.85312131922614,0.2012066364503701,273.9574737259407,44.43493749999999,26.04760161449755
19:07:58:52,0.7735901,-0.21247864,9.993652,0.1146698,0.18260193,-0.03463745,52.49939,-48.599243,-264.30054,10.025800173172128,0.21838585305432995,273.81170138406566,44.43493749999998,26.047601728995105
19:07:58:53,0.6921997,-0.23881531,10.266602,0.12106323,0.2582245,-0.015457153,52.49939,-48.9746095,-264.30054,10.292681370924415,0.28561358797709246,273.878823870927,44.434937499999975,26.047601843492657
19:07:58:54,0.58924866,-0.24598694,10.3815155,0.17433167,0.30403137,0.010101318,52.49939,-49.349976,-264.30054,10.401133959078818,0.3506118106031269,273.9459463577884,44.43493749999997,26.047601957990214
19:07:58:55,0.6275482,-0.15740967,10.134918,0.24996948,0.28805542,0.041000366,52.799988,-49.0501405,-265.12527,10.155548109986816,0.3835905316023595,274.7460356504242,44.43493749999997,26.047602072487766
19:07:58:56,0.725708,-0.035308838,9.584244,0.25741577,0.19325256,0.04206848,53.100586,-48.750305,-265.95,9.611744475735968,0.3246216067989882,275.54612494305997,44.43493749999996,26.04760218698532
19:07:58:57,0.6538849,0.17059326,9.423843,0.20628357,0.089920044,0.03353882,52.799988,-49.2004395,-265.65017,9.448041300261892,0.22751566542086554,275.27957903257993,44.434937499999954,26.047602301482872
19:07:58:58,0.63952637,0.14186096,9.581848,0.15942383,0.031326294,0.03993225,52.49939,-49.650574,-265.35034,9.604214158638984,0.16730773699296106,275.01303312209984,44.43493749999995,26.047602415980425
19:07:58:59,0.725708,0.04849243,9.68959,0.14024353,0.02067566,0.0473938,53.025054999999995,-49.725342,-265.12527,9.716849179910705,0.1494720806764143,274.9108892430815,44.43493749999994,26.047602530477977
19:07:58:60,0.7544403,-0.037704468,9.864365,0.14770508,0.033462524,0.044189453,53.55072,-49.80011,-264.9002,9.893245101906464,0.15776323693020558,274.80874536406316,44.43493749999993,26.04760264497553
19:07:58:61,0.65867615,-0.008972168,9.943375,0.17219543,0.040908813,0.04953003,54.30069,-50.39978,-264.67513499999995,9.965171406503876,0.18378797829497656,274.8501425239432,44.434937499999926,26.047602759473087
19:07:58:62,0.66825867,0.0054016113,9.794937,0.20309448,0.03453064,0.058044434,55.05066,-50.99945,-264.45007,9.81770796374611,0.21403011288989301,274.8915396838233,44.43493749999992,26.04760287397064
19:07:58:63,0.7137451,0.03652954,9.612976,0.21588135,-0.0027618408,0.06762695,54.450226,-50.0244135,-263.92517,9.639505902879183,0.22624276653349504,274.0888667390878,44.43493749999992,26.047602988468192
19:07:58:64,0.720932,0.08680725,9.464539,0.21374512,-0.03152466,0.07295227,53.849792,-49.049377,-263.40027,9.492353603284991,0.2280412555001461,273.2861937943523,44.43493749999991,26.047603102965745
19:07:58:65,0.7400818,0.09397888,9.301727,0.18711853,-0.056030273,0.07827759,54.1496275,-50.099945,-263.475035,9.33159569865231,0.21042841266811743,273.6098958679409,44.434937499999904,26.047603217463298
19:07:58:66,0.7233124,0.11791992,9.258636,0.12852478,-0.06668091,0.08894348,54.449463,-51.150513,-263.5498,9.287595303199991,0.1699291189495988,273.9335979415295,44.4349374999999,26.04760333196085
19:07:58:67,0.83584595,0.1897583,9.325668,0.068862915,-0.03578186,0.097457886,54.2243965,-50.7751465,-264.150235,9.364973588365014,0.12458122696034833,274.3976749866243,44.43493749999989,26.047603446458403
19:07:58:68,0.93640137,0.24960327,9.500458,0.010284424,-0.011276245,0.097457886,53.99933,-50.39978,-264.75067,9.549756621395991,0.0986456416771709,274.86175203171905,44.43493749999988,26.04760356095596
19:07:58:69,0.97232056,0.31903076,9.756638,-0.034454346,-0.020874023,0.08894348,53.924561,-50.849914999999996,-264.225005,9.81015662261663,0.09764102328940764,274.42434040821786,44.434937499999876,26.047603675453512
19:07:58:70,1.0489349,0.2807312,9.940979,-0.046173096,-0.025131226,0.07722473,53.849792,-51.30005,-263.69934,10.000106894905297,0.09341944250562188,273.9869287847166,44.43493749999987,26.047603789951065
19:07:58:71,1.1040039,0.24960327,10.034363,-0.032333374,0.010025024,0.06762695,54.2251585,-50.924683,-263.32473500000003,10.097998178816379,0.07562640112240535,273.6309606601841,44.43493749999986,26.047603904448618
19:07:58:72,1.175827,0.24960327,9.972107,-0.004638672,0.04837036,0.05378723,54.600525,-50.549316,-262.95013,10.044291361055427,0.07248637882751548,273.2749925356515,44.43493749999986,26.04760401894617
19:07:58:73,1.151886,0.29031372,9.88353,0.013473511,0.06329346,0.034606934,55.1254275,-50.099945,-263.249965,9.954661655421356,0.0733841771659196,273.5869721774458,44.434937499999855,26.047604133443723
19:07:58:74,1.1183624,0.3381958,9.821274,0.02519226,0.06222534,0.014373779,55.65033,-49.650574,-263.5498,9.89052748036966,0.06865310207677466,273.89895181924004,44.43493749999985,26.047604247941276
19:07:58:75,1.1135712,0.39326477,9.754242,0.03265381,0.04411316,-0.012268066,54.375457999999995,-50.325012,-263.999935,9.825473779485474,0.056238311106238385,274.2033061447457,44.43493749999984,26.047604362438832
19:07:58:76,1.0776672,0.35494995,9.675232,0.03265381,0.030258179,-0.031433105,53.100586,-50.99945,-264.45007,9.741533263033332,0.05449650258368115,274.5076604702513,44.43493749999983,26.047604476936385
19:07:58:77,1.0465393,0.30706787,9.586639,0.019866943,0.028137207,-0.0463562,53.700256499999995,-51.14975,-263.7001,9.648480838948267,0.05775201399402534,273.9313229590785,44.434937499999826,26.047604591433938
19:07:58:78,0.9747162,0.21609497,9.533966,-0.0025024414,0.037719727,-0.04208374,54.299927,-51.30005,-262.95013,9.586098079811084,0.056569260118040816,273.3549854479057,44.43493749999982,26.04760470593149
19:07:58:79,0.87654114,0.18257141,9.584244,-0.014221191,0.056900024,-0.03036499,54.0748595,-51.30005,-262.650295,9.625974742403903,0.06604458813831121,273.02196372539953,44.43493749999981,26.047604820429044
19:07:58:80,0.80711365,0.12989807,9.639313,-0.012084961,0.066482544,-0.018661499,53.849792,-51.30005,-262.35046,9.67391653181766,0.07010154409148531,272.6889420028934,44.43493749999981,26.047604934926596
19:07:58:81,0.8334503,0.15863037,9.644104,0.022003174,0.045181274,0.018630981,53.700255999999996,-51.30005,-263.24996999999996,9.681350368604187,0.0535966476503868,273.52530286835815,44.434937499999805,26.047605049424153
19:07:58:82,0.8693695,0.21130371,9.591431,0.057144165,0.0057678223,0.02609253,53.55072,-51.30005,-264.14948,9.633068110064986,0.06308362298911264,274.36166373382287,44.4349374999998,26.047605163921705
19:07:58:83,1.0010529,0.30467224,9.512421,0.082717896,-0.03578186,0.014373779,54.30069,-50.775147000000004,-263.549805,9.569800696130825,0.0912644363729227,273.8359022590414,44.43493749999979,26.047605278419258
19:07:58:84,1.0369568,0.39804077,9.555511,0.082717896,-0.07307434,-0.009063721,55.05066,-50.250244,-262.95013,9.61984960021566,0.11074412184611993,273.31014078426,44.43493749999978,26.04760539291681
19:07:58:85,1.0297699,0.4459381,9.632126,0.070999146,-0.06561279,-0.03250122,54.675293499999995,-50.025177,-263.549805,9.697274777784406,0.10199140280338248,273.77133566770533,44.434937499999776,26.047605507414364
19:07:58:86,1.0106201,0.3717041,9.660858,0.059280396,-0.03364563,-0.04208374,54.299927,-49.80011,-264.14948,9.720683835031608,0.08010764595468597,274.2325305511507,44.43493749999977,26.047605621911917
19:07:58:87,0.88612366,0.3214264,9.682404,0.051818848,0.016418457,-0.037826538,54.60001633333333,-50.49998,-263.9495866666667,9.72817954658757,0.06622390592054653,274.22989207801714,44.43493749999976,26.04760573640947
19:07:58:88,0.82865906,0.2591858,9.854797,0.05609131,0.05369568,-0.02078247,54.90010566666667,-51.19985,-263.7496933333333,9.892971092035532,0.08038266086339392,274.2272536048836,44.434937499999755,26.047605850907026
19:07:58:89,0.92681885,0.2591858,10.194763,0.096572876,0.019607544,-0.0005493164,55.200195,-51.89972,-263.5498,10.240086087812248,0.09854480153275778,274.22461513175,44.434937499999755,26.04760596540458
19:07:58:90,0.9459839,0.46987915,10.319275,0.2084198,-0.13272095,-0.021850586,53.700256,-50.100708,-263.25073,10.373191817386244,0.2480546546821605,273.3033942015717,44.43493749999975,26.04760607990213
19:07:58:91,0.78796387,0.60873413,10.233078,0.3330536,-0.35961914,-0.06340027,53.625488000000004,-50.175476,-263.700105,10.281406988128436,0.49423700849225416,273.73535259885057,44.43493749999974,26.047606194399684
19:07:58:92,0.69459534,0.5440979,9.914642,0.42041016,-0.581192,-0.07298279,53.55072,-50.250244,-264.14948,9.953824953217639,0.7210099383028016,274.1673109961294,44.434937499999734,26.047606308897237
19:07:58:93,0.8957062,0.3669281,9.395111,0.42359924,-0.7164917,-0.08576965,53.700255999999996,-50.250244,-263.549805,9.444841794842784,0.8367515193643751,273.61905199611545,44.43493749999973,26.04760642339479
19:07:58:94,0.9244385,0.31903076,9.09343,0.34158325,-0.7292633,-0.08470154,53.849792,-50.250244,-262.95013,9.145864438696236,0.8097397287312905,273.07079299610143,44.43493749999972,26.047606537892342
19:07:58:95,0.81430054,0.43875122,9.0407715,0.20309448,-0.6238098,-0.03463745,53.099823,-51.1497495,-262.95013,9.08796662173162,0.6569518911800261,273.0934455348003,44.43493749999971,26.0476066523899
19:07:58:96,0.85739136,0.5752106,9.241882,0.051818848,-0.42674255,0.044189453,52.349854,-52.049255,-262.95013,9.299374714489089,0.43214245885470315,273.1160980734992,44.434937499999705,26.04760676688745
19:07:58:97,0.9818878,0.54649353,9.344833,-0.08665466,-0.20729065,0.11238098,52.574921,-51.6746525,-262.79983500000003,9.41215504695974,0.25121291436329163,272.9438205866204,44.434937499999705,26.047606881385004
19:07:58:98,1.0489349,0.5560608,9.56749,-0.22940063,-0.04324341,0.15284729,52.799988,-51.30005,-262.64954,9.640867851901852,0.27902855698506757,272.7715430997417,44.4349374999997,26.047606995882557
19:07:58:99,1.1901855,0.6326752,9.940979,-0.3391266,0.09310913,0.16777039,52.950287,-51.525116499999996,-263.77486999999996,10.031943127407885,0.38964479295592924,273.9265560776945,44.43493749999969,26.04760711038011
19:07:59:00,1.3793335,0.6446533,10.407852,-0.39344788,0.21881104,0.14219666,53.100586,-51.750183,-264.9002,10.51862738361461,0.47212222529503056,275.0815690556473,44.434937499999684,26.047607224877662
19:07:59:01,1.4056702,0.64704895,10.790924,-0.37960815,0.3019104,0.0942688,52.799988,-51.450348,-265.12527,10.901312848856332,0.4941040819787087,275.1846763907128,44.43493749999968,26.047607339375215
19:07:59:02,1.3865204,0.6494446,10.802902,-0.3252716,0.35516357,0.050582886,52.49939,-51.150513,-265.35034,10.910861960894259,0.4842534497324659,275.2877837257783,44.43493749999967,26.04760745387277
19:07:59:03,1.1901855,0.67578125,10.620941,-0.2698822,0.4116211,0.017562866,53.099823,-51.9004815,-264.30053499999997,10.708763212796462,0.4925208483954603,274.5350294734015,44.43493749999966,26.047607568370324
19:07:59:04,1.0585022,0.59916687,10.405457,-0.24005127,0.48086548,0.0069122314,53.700256,-52.65045,-263.25073,10.476304845906283,0.5374979079281802,273.7822752210247,44.434937499999656,26.047607682867877
19:07:59:05,0.95077515,0.48902893,10.161255,-0.21875,0.4872589,-0.006942749,54.15039066666667,-52.200316666666666,-263.15053,10.217349257770309,0.534154471939426,273.6898843566235,44.43493749999965,26.04760779736543
19:07:59:06,0.6921997,0.49142456,10.029572,-0.21981812,0.39245605,-0.0037384033,54.60052533333334,-51.75018333333333,-263.05033,10.06543357367358,0.449839674463214,273.5974934922224,44.43493749999965,26.047607911862983
19:07:59:07,0.6610718,0.4650879,9.993652,-0.23899841,0.28059387,0.007980347,55.05066,-51.30005,-262.95013,10.02628560218517,0.36866901931454105,273.5051026278212,44.43493749999964,26.047608026360535
19:07:59:08,0.6275482,0.43395996,9.9266205,-0.2336731,0.21987915,0.027145386,54.524995000000004,-50.325013,-263.625335,9.955899383844068,0.32200439476724774,273.87122547605844,44.434937499999634,26.047608140858088
19:07:59:09,0.8023224,0.41481018,9.7135315,-0.23686218,0.16767883,0.03567505,53.99933,-49.349976,-264.30054,9.755433507562113,0.29239116186544317,274.2373483242957,44.43493749999963,26.047608255355645
19:07:59:10,0.90049744,0.4076233,9.404678,-0.2698822,0.09631348,0.02609253,53.99933,-50.099945500000004,-264.30054,9.456480353589988,0.28773861129217837,274.3742905684062,44.43493749999962,26.047608369853197
19:07:59:11,0.8549957,0.37409973,9.304123,-0.30610657,0.09310913,0.013305664,53.99933,-50.849915,-264.30054,9.350811358065865,0.32023051538072184,274.51123281251665,44.43493749999961,26.04760848435075
19:07:59:12,0.9459839,0.3501587,9.347229,-0.3391266,0.1250763,-0.0016021729,54.4494635,-50.475311500000004,-264.30054,9.401499169424305,0.3614602310175374,274.5316359227377,44.434937499999606,26.047608598848303
19:07:59:13,0.9699249,0.31185913,9.632126,-0.3710785,0.1335907,-0.009063721,54.899597,-50.100708,-264.30054,9.685858852393027,0.39449699533343197,274.5520390329587,44.4349374999996,26.047608713345856
19:07:59:14,0.94358826,0.34059143,10.120544,-0.37960815,0.092041016,-0.002670288,54.899597,-50.100708,-264.30054,10.170141207600576,0.39061621396293533,274.5520390329587,44.4349374999996,26.04760882784341
19:07:59:15,0.7424774,0.38607788,10.841202,-0.30717468,0.049438477,0.014373779,54.899597,-50.100708,-264.30054,10.873453435948491,0.31145955205118164,274.5520390329587,44.43493749999959,26.04760894234096
19:07:59:16,0.6323395,0.45310974,11.612137,-0.14099121,-0.041107178,0.038864136,55.2749635,-49.725342,-263.55057,11.638165121122492,0.15191689322591573,273.8378504948584,44.434937499999585,26.047609056838517
19:07:59:17,0.5341797,0.5273285,12.009567,0.10508728,-0.18492126,0.08999634,55.65033,-49.349976,-262.8006,12.033001405563507,0.23095140188182794,273.1236619567581,44.43493749999958,26.04760917133607
19:07:59:18,0.3570099,0.92237854,12.021545,0.38632202,-0.3159485,0.17521667,54.9751285,-49.424743,-263.10043499999995,12.062163256513134,0.5289319797809727,273.2900155257853,44.43493749999957,26.047609285833623
19:07:59:19,0.5413666,0.6542206,11.691147,0.67607117,-0.28079224,0.28601074,54.299927,-49.49951,-263.40027,11.721945255147242,0.7859507951168025,273.4563690948125,44.43493749999956,26.047609400331176
19:07:59:20,0.49346924,0.3884735,10.992035,0.92214966,-0.19877625,0.3722992,54.750061,-49.424743,-263.700105,11.009961716202897,1.0141393825913763,273.8216289377583,44.434937499999556,26.04760951482873
19:07:59:21,0.428833,0.5057831,10.039139,1.1288147,-0.04324341,0.4511261,55.200195,-49.349976,-263.99994,10.061015164855663,1.216391128521467,274.1868887807041,44.43493749999955,26.04760962932628
19:07:59:22,0.5557251,0.6901398,9.091049,1.2385254,0.1889801,0.45645142,54.5249935,-49.949646,-264.45007,9.134128050926101,1.3334191177050023,274.5953983824237,44.43493749999955,26.047609743823834
19:07:59:23,0.6203613,0.81703186,8.624176,1.249176,0.29763794,0.43515015,53.849792,-50.549316,-264.9002,8.684975583256913,1.3558704493234102,275.0039079841432,44.43493749999954,26.04760985832139
19:07:59:24,0.2301178,1.1426392,8.193222,1.1447906,0.39990234,0.37976074,54.0748595,-51.524353,-263.62532999999996,8.275715394123791,1.2707028051559435,274.00509670753166,44.434937499999535,26.047609972818943
19:07:59:25,-0.0619812,1.5065613,7.6976166,0.94984436,0.28379822,0.3765564,54.299927,-52.49939,-262.35046,7.843906548423859,1.0604435205516314,273.0062854309201,44.43493749999953,26.047610087316496
19:07:59:26,-0.2678833,1.65979,7.0368195,0.62068176,-0.0059509277,0.38401794,54.1496285,-53.324889999999996,-262.42523,7.234880301850138,0.7298979647724959,273.20943589320757,44.43493749999952,26.04761020181405
19:07:59:27,-0.44984436,1.8680878,6.7495117,0.2084198,-0.2658844,0.43728638,53.99933,-54.15039,-262.5,7.017693365000322,0.5525872829960027,273.41258635549497,44.43493749999951,26.0476103163116
19:07:59:28,-0.3373108,1.8680878,6.8668365,-0.18040466,-0.3244629,0.5810852,54.2243965,-54.15039,-262.274935,7.124392894979735,0.6895520462482623,273.2412183115364,44.434937499999506,26.047610430809154
19:07:59:29,0.08885193,1.5879669,7.240326,-0.5383301,-0.3404541,0.7909546,54.449463,-54.15039,-262.04987,7.412951782335855,1.015538019984471,273.0698502675778,44.4349374999995,26.047610545306707
19:07:59:30,0.24447632,1.635849,7.9466095,-0.8472595,-0.39797974,0.9773712,54.2243965,-53.775025,-261.89957000000004,8.116918945470134,1.353325901762084,272.80683316521095,44.43493749999949,26.047610659804263
19:07:59:31,0.6155853,2.0883484,8.959366,-1.0528564,-0.4938507,1.1339569,53.99933,-53.39966,-261.74927,9.220107560289883,1.6242701019131824,272.5438160628441,44.43493749999949,26.047610774301816
19:07:59:32,1.0704803,2.442688,9.766205,-1.1199646,-0.6429901,1.2341003,52.64969,-53.099824,-262.049865,10.123804267174325,1.7862700032221501,272.5136946875488,44.434937499999485,26.04761088879937
19:07:59:33,1.5660706,2.7395782,10.644882,-1.0485992,-0.76441956,1.2490082,51.30005,-52.799988,-262.35046,11.102764458999552,1.8010882903451662,272.48357331225355,44.43493749999948,26.04761100329692
19:07:59:34,1.6690216,2.7491455,11.09259,-0.87709045,-0.72714233,1.1296997,51.450348500000004,-52.649688999999995,-263.0249,11.549415006377457,1.6044453988026894,273.1323950242927,44.43493749999947,26.047611117794474
19:07:59:35,1.9252014,2.2368011,11.154846,-0.65231323,-0.50024414,0.8751068,51.600647,-52.49939,-263.69934,11.53864241907336,1.2006534308632164,273.7812167363318,44.434937499999464,26.047611232292027
19:07:59:36,2.1790009,1.6334534,10.850784,-0.47547913,-0.2743988,0.5235596,51.525116,-52.199555000000004,-263.99994000000004,11.187302103135876,0.758610413360611,273.9995214418992,44.43493749999946,26.047611346789584
19:07:59:37,2.0784302,1.6047211,11.075836,-0.35403442,-0.06880188,0.14112854,51.449585,-51.89972,-264.30054,11.382844328372116,0.38728714675135084,274.2178261474666,44.43493749999945,26.047611461287136
19:07:59:38,1.606781,1.7770996,11.006409,-0.24751282,0.12826538,-0.1795044,51.3748175,-52.349854,-264.22501,11.26414076818832,0.331566634917111,274.21697414881476,44.43493749999944,26.04761157578469
19:07:59:39,0.9771118,1.7818909,10.8316345,-0.1633606,0.29338074,-0.34249878,51.30005,-52.799988,-264.14948,11.02062559888468,0.4796502460510116,274.21612215016285,44.43493749999944,26.047611690282242
19:07:59:40,0.6778259,1.5999298,10.474884,-0.09837341,0.4276123,-0.35421753,51.89972,-52.725218999999996,-263.700105,10.618023268438192,0.5639145905769942,273.88269567622694,44.434937499999435,26.047611804779795
19:07:59:41,0.56770325,1.3868561,10.211533,-0.06535339,0.53627014,-0.31480408,52.49939,-52.65045,-263.25073,10.320904177069796,0.6252666130737815,273.54926920229104,44.43493749999943,26.047611919277347
19:07:59:42,0.349823,1.4658661,9.852402,-0.044052124,0.617218,-0.28497314,52.349853499999995,-51.9004815,-264.30053499999997,9.966993765627738,0.6812549740547742,274.39008705215053,44.43493749999942,26.0476120337749
19:07:59:43,0.26602173,1.6478271,9.502838,-0.038726807,0.6129608,-0.26792908,52.200317,-51.150513,-265.35034,9.64831756144928,0.6700796220052522,275.23090490200997,44.434937499999414,26.047612148272457
19:07:59:44,0.2995453,1.7579498,9.138931,-0.05895996,0.5330658,-0.28390503,52.124786,-51.599884,-264.52484000000004,9.311292859148676,0.6068257493483138,274.50554687765225,44.43493749999941,26.04761226277001
19:07:59:45,0.27799988,1.8154144,8.968933,-0.10583496,0.44677734,-0.31906128,52.049255,-52.049255,-263.69934,9.155040826533563,0.5591163838512655,273.7801888532946,44.4349374999994,26.047612377267562
19:07:59:46,0.5844574,1.6885223,9.340042,-0.16654968,0.375412,-0.34675598,52.4993895,-51.599884,-263.84964,9.509420727456328,0.5375059770066403,273.92658171378673,44.43493749999939,26.047612491765115
19:07:59:47,0.86457825,1.6143036,10.02478,-0.19638062,0.3050995,-0.38616943,52.949524,-51.150513,-263.99994,10.190666598007512,0.5298847813236,274.07297457427893,44.434937499999386,26.047612606262668
19:07:59:48,0.725708,1.4538879,10.347992,-0.15803528,0.27526855,-0.44476318,53.250122,-51.8249515,-263.700105,10.474797399429471,0.5464084650035113,273.97038356465305,44.434937499999386,26.04761272076022
19:07:59:49,0.5485382,1.3581238,10.369553,-0.019546509,0.3572998,-0.51293945,53.55072,-52.49939,-263.40027,10.472488903445765,0.6254215318170854,273.86779255502717,44.43493749999938,26.047612835257773
19:07:59:50,0.4072876,1.2695312,10.352783,0.018798828,0.38713074,-0.5299835,54.000091499999996,-51.8249515,-263.3255,10.438280916988974,0.6565867163287507,273.7568346382691,44.43493749999937,26.04761294975533
19:07:59:51,-0.021270752,1.1115265,10.151672,0.082717896,0.5011139,-0.5193329,54.449463,-51.150513,-263.25073,10.212364466698048,0.7264048816701928,273.64587672151106,44.434937499999364,26.047613064252882
19:07:59:52,-0.22717285,1.1522217,9.967316,0.0912323,0.537323,-0.49908447,55.0498965,-50.7751465,-263.62533499999995,10.036264772991196,0.7390024675787429,274.0572866241922,44.43493749999936,26.047613178750435
19:07:59:53,-0.2678833,1.3078461,9.890701,0.06674194,0.631073,-0.4255829,55.65033,-50.39978,-263.99994,9.980390230602463,0.7640866591273359,274.4686965268733,44.43493749999935,26.047613293247988
19:07:59:54,-0.27745056,1.3317871,9.931412,0.026260376,0.66516113,-0.40107727,55.500029999999995,-51.0749815,-264.225005,10.024149839598106,0.7771691660901063,274.78026202917823,44.43493749999934,26.04761340774554
19:07:59:55,-0.27267456,1.3509369,9.881134,0.008148193,0.6907196,-0.39575195,55.34973,-51.750183,-264.45007,9.976782600087505,0.7961027350801703,275.09182753148315,44.434937499999336,26.047613522243093
19:07:59:56,-0.3875885,1.2431946,9.744659,-0.03126526,0.77381897,-0.38084412,56.25,-51.675415,-264.225005,9.831283572610568,0.8630269744065379,275.04568508545606,44.434937499999336,26.047613636740646
19:07:59:57,-0.44265747,1.2336273,9.665649,-0.04937744,0.8036499,-0.35954285,57.15027,-51.600647,-263.99994,9.75410439467679,0.8817949616192452,274.99954263942897,44.43493749999933,26.047613751238202
19:07:59:58,-0.44744873,1.1905212,9.682404,-0.06535339,0.7834015,-0.33396912,57.2250375,-51.3000485,-263.32474,9.765577213500698,0.8541219754228997,274.31076540969264,44.43493749999932,26.047613865735755
19:07:59:59,-0.47618103,1.2431946,9.732681,-0.06535339,0.759964,-0.30413818,57.299805,-50.99945,-262.64954,9.823307011111991,0.8211676926269107,273.62198817995625,44.434937499999315,26.047613980233308
19:07:59:60,-0.44026184,1.2503815,10.022385,-0.06321716,0.70350647,-0.2828369,57.749939,-51.449585,-262.199405,10.10967286669195,0.7608642945045696,273.37005620122784,44.43493749999931,26.04761409473086
19:07:59:61,-0.57673645,1.3174133,10.249832,-0.050445557,0.6129608,-0.26792908,58.200073,-51.89972,-261.74927,10.350229889427553,0.6708589184525511,273.11812422249943,44.4349374999993,26.047614234672317
19:07:59:62,-0.56715393,1.3605194,10.553894,-0.024871826,0.49578857,-0.26472473,58.200073,-51.525116499999996,-260.9993,10.656329348388534,0.5625869679834328,272.3284780734035,44.43493749999929,26.04761437461377
19:07:59:63,-0.55519104,1.3748779,10.652069,0.015609741,0.38285828,-0.27005005,58.200073,-51.150513,-260.24933,10.754771048774849,0.4687762324218752,271.53883192430766,44.434937499999286,26.04761451455522
19:07:59:64,-0.57673645,1.2958679,10.522781,0.040100098,0.29763794,-0.2828369,59.0248115,-51.8249515,-260.324865,10.617947943033531,0.41254463175353917,271.9187116872278,44.43493749999928,26.047614654496677
19:07:59:65,-0.68447876,1.2431946,10.479675,0.037979126,0.22520447,-0.27964783,59.84955,-52.49939,-260.4004,10.575331299396028,0.3610573031298684,272.29859145014797,44.43493749999927,26.047614794438132
19:07:59:66,-0.6437683,1.1570129,10.656845,0.029449463,0.20069885,-0.2732544,59.999848,-52.0500185,-260.54993,10.738783070202894,0.34031642096976583,272.3888598014937,44.434937499999265,26.047614934379585
19:07:59:67,-0.5743408,1.1450348,10.707123,0.019866943,0.1804657,-0.26792908,60.150146,-51.600647,-260.69946,10.78348065259472,0.32364881617318125,272.47912815283945,44.43493749999925,26.047615074321037
19:07:59:68,-0.49772644,1.0037842,10.958527,0.0038909912,0.1612854,-0.27537537,60.6002805,-51.824951,-260.54993,11.015653786270414,0.319154687366981,272.47891819068366,44.43493749999924,26.047615214262493
19:07:59:69,-0.3947754,1.0732117,11.26976,-0.012084961,0.15063477,-0.30734253,61.050415,-52.049255,-260.4004,11.327626469259219,0.34248549014830587,272.4787082285279,44.434937499999236,26.04761535420395
19:07:59:70,-0.48335266,0.9750519,11.470886,-0.004638672,0.10803223,-0.34568787,61.8751525,-51.0749815,-259.95025999999996,11.522394786962417,0.3622051676354624,272.05326119683025,44.43493749999923,26.0476154941454
19:07:59:71,-0.6318054,0.8912506,11.76297,-0.004638672,0.059020996,-0.3765869,62.69989,-50.100708,-259.50012,11.813592549109247,0.3812121305760949,271.6278141651325,44.43493749999922,26.047615634086853
19:07:59:72,-0.71559143,0.87210083,12.347153,0.010284424,0.0068206787,-0.38510132,62.325287,-51.225280999999995,-259.12476,12.39858129617196,0.38529899779350946,271.3956595994971,44.434937499999215,26.04761577402831
19:07:59:73,-0.7012329,0.7021179,12.845154,0.068862915,-0.02406311,-0.3755188,61.950684,-52.349854,-258.7494,12.883426501100507,0.38253823793002617,271.1635050338617,44.43493749999921,26.047615913969764
19:07:59:74,-0.7012329,0.38128662,12.8164215,0.16474915,0.0036315918,-0.36698914,61.725617,-51.674652,-258.149725,12.841252553092152,0.40228907487360865,270.41061608627894,44.4349374999992,26.047616053911216
19:07:59:75,-0.79460144,0.15623474,12.409409,0.24569702,0.10910034,-0.34675598,61.50055,-50.99945,-257.55005,12.435804456154575,0.4387591816597761,269.65772713869615,44.434937499999194,26.04761619385267
19:07:59:76,-0.8568573,-0.016143799,11.837189,0.26913452,0.17832947,-0.3297119,61.949921,-50.699615,-258.000185,11.868172078147943,0.46145934460981636,270.13442274399176,44.43493749999919,26.047616333794124
19:07:59:77,-0.88319397,-0.030517578,11.28653,0.259552,0.314682,-0.2775116,62.399292,-50.39978,-258.45032,11.321074257865787,0.4933606084423036,270.61111834928744,44.43493749999918,26.04761647373558
19:07:59:78,-0.5839081,0.07003784,10.865143,0.19030762,0.42866516,-0.22424316,62.324524,-51.449585,-258.37478999999996,10.88104711775142,0.5198613319286939,270.72133169485204,44.43493749999917,26.047616613677032
19:07:59:79,-0.23675537,0.32861328,10.685577,0.017730713,0.4830017,-0.22105408,62.249756,-52.49939,-258.29926,10.693250002499017,0.5314789992756296,270.83154504041664,44.434937499999165,26.047616753618485
19:07:59:80,0.03378296,0.51776123,10.668823,-0.11222839,0.4276123,-0.29562378,62.699889999999996,-51.449585,-257.099915,10.681432590481787,0.5318278950325664,269.5921164501033,44.43493749999915,26.04761689355994
19:07:59:81,0.03617859,0.5225525,10.7526245,-0.23686218,0.39352417,-0.4223938,63.150024,-50.39978,-255.90057,10.76537522075431,0.6240043965926693,268.35268785978997,44.434937499999144,26.047617033501396
19:07:59:82,-0.30140686,0.3310089,10.922607,-0.34126282,0.3530426,-0.553421,63.4498595,-49.949645000000004,-256.125635,10.931777378980202,0.7398474119506755,268.55445458535394,44.43493749999914,26.04761717344285
19:07:59:83,-0.7131958,0.06764221,11.260193,-0.38174438,0.31256104,-0.6088104,63.749695,-49.49951,-256.3507,11.282959280036435,0.7836282782899211,268.75622131091797,44.43493749999913,26.0476173133843
19:07:59:84,-1.1369781,-0.34176636,11.758179,-0.40304565,0.21029663,-0.68444824,63.749695,-50.249480000000005,-257.100675,11.817965004210675,0.8216689490374922,269.61117356752754,44.43493749999912,26.047617453325756
19:07:59:85,-1.2758331,-0.5261078,11.971268,-0.32740784,0.115478516,-0.70788574,63.749695,-50.99945,-257.85065,12.050551731937441,0.7884373166247114,270.4661258241372,44.434937499999116,26.047617593267212
19:07:59:86,-1.3428802,-0.933136,12.169983,-0.050445557,-0.04750061,-0.66633606,63.749695,-50.624847,-257.70034999999996,12.279354879078014,0.6699289567019296,270.252634539347,44.43493749999911,26.047617733208664
19:07:59:87,-1.2902069,-1.1486053,11.722275,0.082717896,-0.13165283,-0.6397095,63.749695,-50.250244,-257.55005,11.848867420796838,0.6583334735192536,270.03914325455685,44.4349374999991,26.047617873150116
19:07:59:88,-1.0867004,-1.3592987,10.824448,0.4544983,-0.28611755,-0.51293945,63.749695,-50.250244,-257.174685,10.963452249172514,0.7426566073813623,269.68118585634795,44.434937499999094,26.047618013091572
19:07:59:89,-0.8496704,-1.6035004,9.703964,0.57273865,-0.29144287,-0.35954285,63.749695,-50.250244,-256.79932,9.87218672000952,0.7363691795993244,269.32322845813906,44.43493749999909,26.047618153033028
19:07:59:90,-0.66052246,-1.5556183,9.220322,0.5855255,-0.25202942,-0.30413818,63.825226,-50.7003785,-256.72455,9.373930658968165,0.7062994918796833,269.3545903816743,44.43493749999908,26.04761829297448
19:07:59:91,-0.1194458,-1.1103058,7.98732,0.49497986,-0.09437561,-0.17631531,63.900757,-51.150513,-256.64978,8.065006326783092,0.5338528880776874,269.38595230520957,44.43493749999907,26.047618432915932
19:07:59:92,0.5150299,-0.7894745,7.5946655,0.36288452,-0.025131226,-0.14329529,63.5253905,-51.150513,-256.80008,7.652938640870872,0.39096073141950916,269.44070182312225,44.434937499999066,26.047618572857388
19:07:59:93,0.82865906,-0.6482239,7.462982,0.21481323,0.0068206787,-0.18164062,63.150024,-51.150513,-256.95038,7.53677453520903,0.2813975129153524,269.495451341035,44.43493749999905,26.047618712798844
19:07:59:94,1.1255493,-0.59555054,7.568329,0.082717896,0.0014953613,-0.24874878,62.325287,-50.7003785,-256.65054,7.674708171954539,0.2621458410419146,268.93331176572,44.434937499999045,26.047618852740296
19:07:59:95,1.2955322,-0.67456055,7.8867645,-0.020614624,-0.03152466,-0.32757568,61.50055,-50.250244,-256.3507,8.020878374299999,0.3297341247706087,268.37117219040505,44.43493749999904,26.04761899268175
19:07:59:96,1.1686401,-0.80384827,8.202789,-0.083465576,-0.06347656,-0.41386414,62.250519999999995,-50.39978,-256.3507,8.3245203527309,0.4269418021515169,268.5730636357066,44.43493749999903,26.047619132623204
19:07:59:97,0.9579468,-0.961853,8.509247,-0.09411621,-0.105026245,-0.4767151,63.00049,-50.549316,-256.3507,8.616850223384892,0.49713746558831606,268.77495508100816,44.43493749999902,26.04761927256466
19:07:59:98,0.71614075,-1.1246643,8.727127,-0.053634644,-0.1913147,-0.4958954,62.699891,-50.325012,-255.90057000000002,8.828390172371973,0.5342192782128484,268.2331721671861,44.434937499999016,26.047619412506112
19:07:59:99,0.5916443,-1.2324066,8.952179,0.031585693,-0.33618164,-0.4820404,62.399292,-50.100708,-255.45044,9.055958141107268,0.5885394619798572,267.69138925336415,44.43493749999901,26.047619552447564
19:08:00:00,0.5126343,-1.2802887,8.940201,0.0869751,-0.4096985,-0.46287537,62.924957500000005,-49.875641,-255.825045,9.04594533486054,0.6242364432447828,268.1303007043522,44.434937499999,26.04761969238902
19:08:00:01,0.46235657,-1.2419739,8.664871,0.2584839,-0.58332825,-0.38084412,63.450623,-49.650574,-256.19965,8.765629595912912,0.7430531727580785,268.56921215534015,44.434937499998995,26.047619832330476
19:08:00:02,0.4982605,-1.0648041,8.212372,0.32453918,-0.6248779,-0.29881287,62.550354,-49.500275,-256.19965,8.296090956807372,0.7649099296918032,268.3316256005136,44.43493749999899,26.047619972271928
19:08:00:03,0.6275482,-0.7487793,7.9226685,0.31600952,-0.6269989,-0.2263794,61.650085,-49.349976,-256.19965,7.982678957863957,0.7377243862555991,268.09403904568694,44.43493749999898,26.04762011221338
19:08:00:04,0.6275482,-0.5045624,7.7694397,0.24890137,-0.5428467,-0.16992188,61.650085,-49.500275,-255.30014,7.811055832008442,0.620892806361534,267.2626276769123,44.43493749999897,26.047620252154836
19:08:00:05,0.22532654,-0.36091614,5.9019623,0.009216309,-0.08905029,-0.08683777,61.650085,-49.650574,-254.40063,5.917279062234784,0.12472246309001632,266.4312163081376,44.434937499998966,26.04762039209629
19:08:00:06,0.45516968,-0.82299805,8.300949,-0.42434692,0.61509705,0.107040405,62.400054499999996,-49.650574,-255.1506,8.35405647146918,0.754898892392056,267.32210199017555,44.43493749999895,26.047620532037744
19:08:00:07,-0.0045166016,-0.5045624,8.470947,-0.47122192,0.8110962,0.2242279,63.150024,-49.650574,-255.90057,8.48596174231258,0.964471510559714,268.2129876722135,44.434937499998945,26.047620671979196
19:08:00:08,0.35461426,-0.20529175,8.741486,-0.4733429,0.8782196,0.21676636,63.300323500000005,-49.275206999999995,-255.525205,8.751084130792561,1.020936247584647,267.821317961126,44.43493749999894,26.047620811920652
19:08:00:09,0.23251343,0.33340454,8.648117,-0.37535095,0.7876587,0.13687134,63.450623,-48.89984,-255.14984,8.657664161199138,0.8831921235297495,267.4296482500385,44.43493749999893,26.047620951862108
19:08:00:10,0.09124756,0.5871887,8.64093,-0.2741394,0.60549927,0.054855347,63.450623,-49.124908,-254.174805,8.661338692806885,0.6669264469920078,266.5413324152901,44.434937499998924,26.04762109180356
19:08:00:11,0.04815674,0.5847931,8.494888,-0.16868591,0.35411072,-0.0079956055,63.450623,-49.349976,-253.19977,8.515129134309063,0.39231781499029345,265.65301658054176,44.43493749999892,26.047621231745012
19:08:00:12,-0.0045166016,0.5871887,8.406296,-0.079208374,0.113357544,-0.05807495,63.375091499999996,-49.199676499999995,-253.87497000000002,8.426780132928217,0.14998866327472324,266.25107942253146,44.43493749999891,26.047621371686468
19:08:00:13,-0.05958557,0.6925354,8.346451,-0.039794922,0.0014953613,-0.08256531,63.29956,-49.049377,-254.55017,8.37534476996657,0.09166734608245033,266.8491422645211,44.4349374999989,26.047621511627923
19:08:00:14,-0.15774536,0.79548645,8.174057,0.018798828,-0.18811035,-0.12411499,63.29956,-48.449706666666664,-254.70021333333335,8.214188342738687,0.22614913321522193,266.88418616170725,44.434937499998895,26.047621651569376
19:08:00:15,-0.45224,0.8553467,8.044769,0.04437256,-0.31808472,-0.14968872,63.29956,-47.850036333333335,-254.85025666666667,8.102743193398263,0.354335329982307,266.9192300588934,44.43493749999889,26.047621791510828
19:08:00:16,-0.6509552,0.8768921,8.090271,0.03265381,-0.5247345,-0.15713501,63.29956,-47.250366,-255.0003,8.163649139991897,0.548729421632799,266.95427395607953,44.43493749999888,26.047621931452284
19:08:00:17,-0.86164856,0.8673096,8.188431,0.0017547607,-0.6472473,-0.123046875,62.550354,-48.30017,-254.24957,8.27919479327327,0.6588419233698398,266.24856253647476,44.434937499998874,26.04762207139374
19:08:00:18,-0.9454346,0.8266144,8.5355835,-0.046173096,-0.721817,-0.06340027,62.775422,-48.1498715,-253.87497000000002,8.627474928079291,0.7260656516591997,265.9168435021209,44.43493749999886,26.04762221133519
19:08:00:19,-0.84487915,0.833786,8.820496,-0.08453369,-0.71435547,0.0069122314,63.00049,-47.999573,-253.50037,8.900009525720561,0.7193729639115333,265.58512446776706,44.43493749999885,26.047622351276644
19:08:00:20,-0.6581421,0.95111084,9.059921,-0.12394714,-0.63978577,0.064437866,62.475587000000004,-48.299408,-253.200535,9.133451230504212,0.6548594991166475,265.2298471357673,44.434937499998846,26.0476224912181
19:08:00:21,-0.34449768,1.2455902,9.378342,-0.16975403,-0.50450134,0.10066223,61.950684,-48.599243,-252.9007,9.466967427155616,0.5417295610464777,264.8745698037675,44.43493749999884,26.047622631159555
19:08:00:22,-0.17211914,1.315033,9.560303,-0.18891907,-0.4277954,0.11238098,61.913109125000005,-48.318099875,-252.863125,9.651856310640577,0.4809665309941902,264.77942050801647,44.43493749999883,26.047622771101008
19:08:00:23,-0.17171986833333333,1.39044955,9.788152333333333,-0.18945312666666667,-0.35961913216666663,0.11309051333333334,61.87553425,-48.03695675,-252.82555,9.888334977898685,0.4383949558784928,264.68427121226546,44.434937499998824,26.04762291104246
19:08:00:24,-0.17132059666666666,1.4658661,10.016001666666666,-0.18998718333333334,-0.29144286433333333,0.11380004666666667,61.837959375,-47.755813625,-252.787975,10.124813645156793,0.39582338076279544,264.58912191651444,44.43493749999882,26.047623050983916
19:08:00:25,-0.170921325,1.5412826499999999,10.243851,-0.19052123999999998,-0.2232665965,0.11450958,61.8003845,-47.4746705,-252.7504,10.3612923124149,0.35325180564709807,264.49397262076343,44.43493749999881,26.04762319092537
19:08:00:26,-0.17052205333333334,1.6166992,10.471700333333333,-0.19105529666666665,-0.15509032866666667,0.11521911333333333,61.762809625,-47.193527375,-252.712825,10.597770979673008,0.3106802305314007,264.3988233250124,44.4349374999988,26.047623330866823
19:08:00:27,-0.17012278166666667,1.6921157500000001,10.699549666666666,-0.19158935333333332,-0.08691406083333336,0.11592864666666666,61.72523475,-46.91238425,-252.67525,10.834249646931116,0.26810865541570333,264.3036740292614,44.434937499998796,26.047623470808276
19:08:00:28,-0.16972351,1.7675323,10.927399,-0.19212341,-0.018737793,0.11663818,61.687659874999994,-46.631241125,-252.637675,11.070728314189225,0.22553708030000597,264.2085247335104,44.43493749999879,26.04762361074973
19:08:00:29,-0.27027893,1.7627411,10.958527,0.047561646,-0.09863281,0.18267822,61.650085,-46.350098,-252.6001,11.10268530110442,0.21298327033148357,264.1133754377594,44.43493749999878,26.047623750691187
19:08:00:30,-0.31576538,1.690918,10.786133,0.10508728,-0.105026245,0.22529602,62.100219499999994,-46.800232,-252.300265,10.922434552407239,0.2698743136803479,264.01251422233895,44.434937499998775,26.04762389063264
19:08:00:31,-0.15774536,1.5999298,10.69516,0.13278198,-0.091171265,0.28175354,62.550354,-47.250366,-252.00043,10.815318136288436,0.3245432345265454,263.9116530069185,44.43493749999876,26.04762403057409
19:08:00:32,0.08406067,1.6023254,10.786133,0.14343262,-0.09011841,0.30944824,61.8003845,-46.725463000000005,-251.10016000000002,10.904823610559458,0.35277819878797795,262.7816934717293,44.43493749999875,26.047624170515547
19:08:00:33,0.41685486,1.6454315,11.018372,0.15089417,-0.11781311,0.3808136,61.050415,-46.20056,-250.19989,11.148351193153266,0.4262252659953666,261.65173393654004,44.434937499998746,26.047624310457003
19:08:00:34,0.71614075,1.6190948,11.238647,0.16687012,-0.14125061,0.3776245,61.1251825,-46.050261500000005,-250.424955,11.37723656850848,0.43634577432861255,261.8579937630033,44.43493749999874,26.047624450398455
19:08:00:35,0.8382416,1.6262665,11.56665,0.19137573,-0.21261597,0.3456726,61.19995,-45.899963,-250.65002,11.710456179478783,0.44868671378015396,262.0642535894666,44.43493749999873,26.047624590339908
19:08:00:36,0.91485596,1.4945984,11.892258,0.22865295,-0.31808472,0.29559326,62.249755,-46.050261500000005,-250.94986,12.020673281617551,0.4907498711142047,262.62595053904624,44.434937499998725,26.047624730281363
19:08:00:37,0.63713074,1.2767181,12.174774,0.2819214,-0.43418884,0.24873352,63.29956,-46.20056,-251.2497,12.258102081390762,0.5743413519241811,263.1876474886259,44.43493749999872,26.04762487022282
19:08:00:38,0.39291382,1.0564575,12.4405365,0.34477234,-0.5119629,0.2242279,62.4748225,-46.800231,-251.32522999999998,12.491494391268223,0.6566978974718098,263.17063193889413,44.43493749999871,26.04762501016427
19:08:00:39,0.41685486,0.90083313,12.610519,0.41934204,-0.5311279,0.22529602,61.650085,-47.399902,-251.40076,12.649524012854089,0.7132341055345096,263.1536163891624,44.4349374999987,26.047625150105723
19:08:00:40,0.41207886,0.93673706,12.572205,0.4907074,-0.45655823,0.2242279,61.35025,-47.174835,-251.32522999999998,12.613787054983185,0.706765393135447,262.97110567074265,44.434937499998696,26.04762529004718
19:08:00:41,0.3139038,0.8601227,12.172379,0.54823303,-0.2733307,0.22955322,61.050415,-46.949768,-251.2497,12.206766859998217,0.6541894278860209,262.7885949523229,44.43493749999869,26.047625429988635
19:08:00:42,0.28996277,0.8816681,11.513977,0.5578308,-0.0059509277,0.24659729,61.050415,-46.949768,-251.2497,11.551323880970212,0.6099351099948869,262.7885949523229,44.43493749999868,26.047625569930087
19:08:00:43,0.19180298,1.0420837,10.879517,0.5120239,0.22627258,0.26045227,61.050415,-46.949768,-251.2497,10.930993412047762,0.617416504135757,262.7885949523229,44.434937499998675,26.04762570987154
19:08:00:44,0.07928467,1.1618042,10.510803,0.43319702,0.40203857,0.2753601,61.1251825,-47.399902499999996,-250.799565,10.575114881779944,0.6520106245886913,262.45716123076284,44.43493749999866,26.047625849812995
19:08:00:45,0.18461609,1.2479858,10.309692,0.32666016,0.5277405,0.2838745,61.19995,-47.850037,-250.34943,10.386592357099248,0.6824966133408469,262.1257275092027,44.434937499998654,26.04762598975445
19:08:00:46,0.16067505,1.3365784,10.288147,0.21800232,0.5469208,0.26896667,61.30015,-48.15012633333333,-249.64956,10.375848253740417,0.6472947107530783,261.53686579759847,44.43493749999865,26.047626129695903
19:08:00:47,0.06491089,1.3940277,10.508408,0.13703918,0.45317078,0.23274231,61.400349999999996,-48.450215666666665,-248.94969,10.600668155662259,0.5275532916824772,260.9480040859943,44.43493749999864,26.047626269637355
19:08:00:48,-0.011703491,1.3341827,10.561081,0.10934448,0.3796692,0.20718384,61.50055,-48.750305,-248.24982,10.645027587434514,0.4461278519575481,260.35914237439005,44.43493749999863,26.04762640957881
19:08:00:49,-0.3588562,0.8840637,10.711914,0.053955078,0.1485138,0.15179443,62.69989,-47.399902,-249.15009,10.7543222911224,0.21910967165200854,261.2542712811215,44.434937499998625,26.047626549520267
19:08:00:50,-0.49293518,0.5273285,10.915421,0.03904724,0.027069092,0.15179443,62.04986566666667,-47.24985733333333,-248.75030666666666,10.939263048571183,0.15905650465273957,260.691438478528,44.43493749999862,26.04762668946172
19:08:00:51,-0.6006775,0.16342163,10.9704895,0.043304443,-0.04324341,0.17416382,61.399841333333335,-47.099812666666665,-248.35052333333334,10.988137237847384,0.18460309718138737,260.1286056759346,44.43493749999861,26.047626846895856
19:08:00:52,-0.7515106,-0.11431885,10.958527,0.06034851,-0.06880188,0.21783447,60.749817,-46.949768,-247.95074,10.984860080634013,0.2362784325132859,259.56577287334113,44.434937499998604,26.04762700432999
19:08:00:53,-0.75390625,-0.36810303,10.860352,0.0912323,-0.07307434,0.274292,60.749817,-46.949768,-247.95074,10.892709490222726,0.29815984470368506,259.56577287334113,44.43493749999859,26.047627161764126
19:08:00:54,-0.58869934,-0.54766846,10.85318,0.13917542,-0.079452515,0.3296814,60.749817,-46.949768,-247.95074,10.88292349359285,0.36656830902024473,259.56577287334113,44.43493749999858,26.047627319198263
19:08:00:55,-0.27745056,-0.64582825,10.647278,0.22013855,-0.06668091,0.36590576,60.52475,-46.199799,-247.425075,10.67045461782329,0.43219711955970763,258.87690011979754,44.434937499998576,26.0476274766324
19:08:00:56,-0.16732788,-0.80862427,9.651291,0.3298645,0.013214111,0.38508606,60.299683,-45.44983,-246.89941,9.68655200761031,0.5072242844108451,258.18802736625395,44.43493749999857,26.047627634066533
19:08:00:57,-0.014099121,-0.77511597,8.822891,0.3330536,-0.007019043,0.39360046,60.900116499999996,-45.825195,-247.04971,8.85688484457391,0.515650355909707,258.5396145533537,44.434937499998554,26.04762779150067
19:08:00:58,0.14871216,-0.62905884,8.511642,0.30854797,-0.04963684,0.3914795,61.50055,-46.20056,-247.20001,8.536151349810874,0.5009210163254847,258.8912017404535,44.43493749999855,26.047627948934807
19:08:00:59,0.23490906,-0.61709595,8.526016,0.22332764,-0.1678772,0.37123108,60.525513000000004,-45.6001275,-247.575375,8.55154597194171,0.46461866495630155,258.916448176162,44.43493749999854,26.04762810636894
19:08:00:60,0.46235657,-0.56681824,8.7486725,0.14556885,-0.2424469,0.3307495,59.550476,-44.999695,-247.95074,8.779198541283543,0.4351620630985455,258.9416946118705,44.43493749999853,26.047628263803077
19:08:00:61,0.4360199,-0.6362457,8.887543,0.024124146,-0.24563599,0.23701477,58.950043,-45.2247625,-247.20001,8.920949642320233,0.3421914890842002,258.1250462722918,44.43493749999852,26.047628421237214
19:08:00:62,0.13912964,-0.6697693,9.227509,-0.012084961,-0.23712158,0.21037292,58.34961,-45.44983,-246.44928,9.252830394913223,0.31722146121187056,257.30839793271304,44.43493749999851,26.047628578671347
19:08:00:63,-0.10507202,-0.7272339,9.476501,-0.06321716,-0.22007751,0.1773529,58.2000735,-45.2247625,-246.44928,9.504945053902054,0.2896283322892906,257.23499555803244,44.434937499998505,26.047628736105484
19:08:00:64,-0.45941162,-0.9163666,9.694382,-0.09411621,-0.17533875,0.16456604,58.050537,-44.999695,-246.44928,9.748427008708152,0.2582315235551388,257.1615931833519,44.4349374999985,26.04762889353962
19:08:00:65,-0.5456085,-1.036087,9.905075,-0.09944153,-0.10821533,0.17628479,58.050537,-44.850159000000005,-246.074675,9.974050113292305,0.22951144355150116,256.77648191355155,44.43493749999848,26.047629050973754
19:08:00:66,-0.48335266,-1.0384674,9.996048,-0.04298401,-0.020874023,0.23062134,58.050537,-44.700623,-245.70007,10.061462118056989,0.23551974952279528,256.3913706437512,44.434937499998476,26.04762920840789
19:08:00:67,-0.42590332,-1.0384674,9.969711,-0.004638672,-0.00062561035,0.2476654,57.975006,-44.7753915,-245.62530500000003,10.03269383577366,0.24770962642455704,256.31570108014114,44.43493749999847,26.047629365842027
19:08:00:68,-0.32055664,-0.8876343,9.490875,0.07952881,0.018539429,0.27642822,57.899475,-44.85016,-245.55054,9.537681032389875,0.2882379275182753,256.240031516531,44.43493749999846,26.047629523276164
19:08:00:69,-0.22956848,-0.7631378,9.0407715,0.15515137,0.008956909,0.29240417,57.59964,-45.149995000000004,-244.72504,9.075826700858197,0.33113799610600425,255.4345281991873,44.43493749999845,26.047629680710298
19:08:00:70,-0.20083618,-0.6937103,8.815704,0.2041626,0.0036315918,0.29986572,57.299805,-45.44983,-243.89954,8.845236354509645,0.36278782467012344,254.6290248818436,44.43493749999844,26.047629838144434
19:08:00:71,-0.09310913,-0.50216675,8.176453,0.23825073,0.008956909,0.2977295,57.2250375,-45.300293499999995,-245.09964000000002,8.192388199792777,0.38142691532535716,255.73599248107467,44.43493749999843,26.04762999557857
19:08:00:72,-0.028457642,-0.50216675,8.00647,0.23718262,0.008956909,0.28601074,57.15027,-45.150757,-246.29974,8.02225299670197,0.37166916046969284,256.8429600803058,44.434937499998426,26.047630153012705
19:08:00:73,-0.22239685,-0.3776703,7.604248,0.22227478,0.007888794,0.2508545,57.975007,-43.8003535,-245.62454000000002,7.616868310526053,0.33525556082647284,256.15126054953885,44.43493749999842,26.04763031044684
19:08:00:74,-0.22956848,-0.38006592,7.2666626,0.17219543,0.03665161,0.21890259,58.799744,-42.44995,-244.94934,7.2802154592287796,0.2809144897245158,255.4595610187719,44.434937499998405,26.04763046788098
19:08:00:75,-0.27027893,-0.37287903,7.0128784,0.14343262,0.05050659,0.20932007,58.574676999999994,-43.35022,-244.94934,7.02798356032527,0.2587251897637673,255.56068641522296,44.4349374999984,26.047630625315115
19:08:00:76,-0.39956665,-0.3585205,6.8045807,0.028396606,0.059020996,0.18267822,58.34961,-44.25049,-244.94934,6.825724061191234,0.19406487900575842,255.661811811674,44.43493749999839,26.04763078274925
19:08:00:77,-0.42829895,-0.33937073,6.790207,-0.017410278,0.05583191,0.1773529,57.225037,-43.875123,-244.799805,6.812159979463257,0.18674681012722918,255.20166927418984,44.434937499998384,26.047630940183385
19:08:00:78,-0.41152954,-0.32260132,7.008087,-0.11222839,0.030258179,0.1730957,56.100464,-43.499756,-244.65027,7.0275679700396605,0.208501535430505,254.74152673670568,44.43493749999837,26.047631097617522
19:08:00:79,-0.35406494,-0.2723236,7.3145447,-0.21981812,-0.03578186,0.15284729,56.25,-42.675017999999994,-243.82477,7.328170733078771,0.27011597776832474,253.84309118913205,44.43493749999836,26.047631255051655
19:08:00:80,-0.40196228,-0.2579651,7.5707245,-0.26669312,-0.07626343,0.1262207,56.399536,-41.85028,-242.99927,7.585775446337774,0.30475071143344246,252.94465564155846,44.434937499998355,26.047631412485792
19:08:00:81,-0.37083435,-0.21965027,7.8747864,-0.29971313,-0.114608765,0.1027832,56.25,-41.9250485,-242.32483,7.886572462221846,0.3369384446919973,252.27590256748593,44.43493749999835,26.04763156991993
19:08:00:82,-0.45941162,-0.2866974,8.2387085,-0.31462097,-0.13058472,0.08999634,56.100464,-41.999817,-241.65039,8.256486673139491,0.352332321927204,251.6071494934134,44.434937499998334,26.047631727354062
19:08:00:83,-0.47618103,-0.30584717,8.765427,-0.3252716,-0.1678772,0.08467102,56.25,-41.77475,-242.100525,8.783678122350448,0.37570407194258676,252.03560959211686,44.43493749999833,26.0476318847882
19:08:00:84,-0.5240631,-0.31782532,9.217941,-0.30717468,-0.15934753,0.09106445,56.399536,-41.549683,-242.55066,9.238294828933297,0.35782768674881177,252.4640696908203,44.43493749999832,26.047632042222336
19:08:00:85,-0.48814392,-0.3010559,9.454956,-0.2464447,-0.11781311,0.11663818,56.399536,-41.6999815,-242.774965,9.472334036735283,0.2970174811011542,252.70436266618938,44.43493749999831,26.04763219965647
19:08:00:86,-0.39956665,-0.25317383,9.569885,-0.15270996,-0.07626343,0.1539154,56.399536,-41.85028,-242.99927,9.58156821241774,0.22983992907179226,252.94465564155846,44.4349374999983,26.047632357090606
19:08:00:87,-0.17929077,-0.06404114,9.541153,-0.04084778,-0.046432495,0.18481445,56.25,-41.400146,-242.549895,9.543052290395808,0.19488688681298164,252.40567063363977,44.43493749999829,26.047632514524743
19:08:00:88,-0.026062012,0.165802,9.246658,0.049697876,-0.011276245,0.20185852,56.100464,-40.950012,-242.10052,9.248181102283707,0.20819196592760683,251.86668562572112,44.434937499998284,26.04763267195888
19:08:00:89,0.17984009,0.5943756,8.327286,0.10083008,0.015350342,0.20185852,56.400299000000004,-40.650176,-241.65039,8.350408189881653,0.22616188920530747,251.45288367981198,44.43493749999828,26.047632829393013
19:08:00:90,0.28279114,0.8409729,7.9298553,0.08378601,-0.0059509277,0.19546509,56.700134,-40.35034,-241.20026,7.979336521687439,0.21274893753182136,251.03908173390283,44.43493749999827,26.04763298682715
19:08:00:91,0.31152344,1.0444794,7.8388824,0.0049591064,-0.08052063,0.1816101,56.324766999999994,-40.575408,-240.82488999999998,7.914294747589551,0.19872189867725554,250.63047750961366,44.434937499998256,26.047633144261287
19:08:00:92,0.43841553,1.2719269,8.047165,-0.20063782,-0.16255188,0.16670227,55.9494,-40.800476,-240.44952,8.158852293865467,0.3073569510016647,250.22187328532448,44.43493749999825,26.04763330169542
19:08:00:93,0.6850128,1.4131927,8.626572,-0.35830688,-0.23072815,0.14326477,55.799865,-39.8254395,-240.224455,8.768357920082934,0.44960437473506615,249.81661037359498,44.43493749999824,26.047633459129557
19:08:00:94,0.94358826,1.4395294,9.514816,-0.4978485,-0.26374817,0.109176636,55.65033,-38.850403,-239.99939,9.669246465559256,0.5738778301858989,249.41134746186552,44.434937499998235,26.047633616563694
19:08:00:95,1.2883453,1.3126373,10.544327,-0.54685974,-0.25523376,0.08680725,55.1254275,-38.5505675,-239.699555,10.703535966040025,0.6097010301198184,248.96001144685502,44.43493749999822,26.04763377399783
19:08:00:96,1.4032745,1.3317871,11.434967,-0.5958557,-0.16362,-0.010131836,54.600525,-38.250732,-239.39972,11.597469831526428,0.6179952861658581,248.50867543184452,44.43493749999821,26.047633931431964
19:08:00:97,1.4008789,1.3222046,12.428558,-0.5809479,-0.12953186,-0.048477173,55.2001955,-38.100432999999995,-239.099885,12.57695275717017,0.5971842274972954,248.33022336281016,44.434937499998206,26.0476340888661
19:08:00:98,1.4439697,1.1761627,12.878662,-0.5063782,-0.08584595,-0.11665344,55.799866,-37.950134,-238.80005,13.012622414472549,0.5266843776214328,248.1517712937758,44.4349374999982,26.047634246300237
19:08:00:99,1.2524414,1.022934,12.9505005,-0.38386536,-0.034713745,-0.18696594,55.725098,-38.024902,-239.250185,13.051071474376739,0.42838524883559914,248.57968829094392,44.434937499998185,26.04763440373437
19:08:01:00,1.1375122,0.99420166,12.916977,-0.2741394,-0.007019043,-0.25195312,55.65033,-38.09967,-239.70032,13.005024635287109,0.37240039242021516,249.00760528811205,44.43493749999818,26.047634561168508
19:08:01:01,0.7400818,0.90083313,12.663193,-0.19638062,0.013214111,-0.29988098,55.4252625,-37.950135,-239.32495,12.716747947256243,0.35870400444776906,248.57318713371814,44.43493749999817,26.047634718602644
19:08:01:02,0.4862976,0.8840637,12.349548,-0.17294312,0.061157227,-0.3052063,55.200195,-37.8006,-238.94958,12.390697711821053,0.35609045863285066,248.1387689793242,44.43493749999816,26.047634876036778
19:08:01:03,0.4072876,0.88645935,12.217865,-0.21556091,0.09524536,-0.28816223,54.1503905,-36.375428,-239.17464999999999,12.256749916945404,0.37225751210705016,247.91749566226673,44.43493749999815,26.047635033470915
19:08:01:04,0.30194092,0.8984375,12.280121,-0.30503845,0.10482788,-0.25727844,53.100586,-34.950256,-239.39972,12.316644430818714,0.41258882206445013,247.69622234520924,44.43493749999814,26.04763519090505
19:08:01:05,0.7185364,0.6446533,13.177948,-0.3870697,0.07926941,-0.21891785,53.7750245,-36.000061,-238.275145,13.21325796032265,0.45169859095248527,246.91092993088273,44.434937499998135,26.047635348339185
19:08:01:06,1.120758,0.46029663,13.754944,-0.41583252,0.07394409,-0.19761658,54.449463,-37.049866,-237.15057,13.808202487119363,0.4663011106853327,246.12563751655622,44.43493749999813,26.04763550577332
19:08:01:07,1.2500458,0.5297241,14.185898,-0.36042786,0.07287598,-0.23384094,54.0748595,-35.700226,-237.15057,14.250716620248346,0.43577601579851044,245.84725700711914,44.434937499998114,26.04763566320746
19:08:01:08,1.2763824,0.68055725,14.705444,-0.3401947,0.054763794,-0.25621033,53.700256,-34.350586,-237.15057,14.776413415937352,0.42938938067920746,245.56887649768208,44.43493749999811,26.047635820641595
19:08:01:09,1.3170776,0.7356262,14.899368,-0.2922516,0.017486572,-0.31266785,54.2999265,-34.200287,-237.15057,14.975546938592,0.428343276270906,245.68049217744309,44.4349374999981,26.04763597807573
19:08:01:10,1.0704803,0.43156433,15.347092,-0.23472595,0.029205322,-0.38830566,54.899597,-34.049988,-237.15057,15.39043237534542,0.45467626727657756,245.7921078572041,44.43493749999809,26.047636135509865
19:08:01:11,0.938797,0.26397705,15.404556,-0.14631653,0.101638794,-0.44050598,53.9245605,-33.300019,-236.4006,15.435393394639208,0.4751678543554643,244.7508622726165,44.434937499998085,26.047636292944002
19:08:01:12,0.49586487,-0.21487427,14.978378,-0.02168274,0.23052979,-0.4490204,52.949524,-32.55005,-235.65063,14.988123979741165,0.5052063389423292,243.70961668802892,44.43493749999807,26.047636450378135
19:08:01:13,0.39770508,-0.34654236,14.257736,0.13171387,0.36795044,-0.4064026,53.9245605,-32.324982500000004,-236.4006,14.267490907080619,0.5638254544921952,244.61958662456868,44.434937499998064,26.047636607812272
19:08:01:14,0.5700836,-0.45188904,13.314407,0.29789734,0.4595642,-0.34994507,54.899597,-32.099915,-237.15057,13.334265363232804,0.6499258658631925,245.52955656110842,44.43493749999806,26.04763676524641
19:08:01:15,0.84542847,-0.58836365,12.205902,0.4640808,0.49258423,-0.3009491,53.174591,-32.475281,-236.925505,12.249284253217894,0.7406622532329719,244.9872425630915,44.43493749999805,26.047636922680546
19:08:01:16,1.0393524,-0.6218872,11.056686,0.6025696,0.4787445,-0.27537537,51.449585,-32.850647,-236.70044,11.12282798588136,0.8173848625507123,244.4449285650746,44.434937499998036,26.04763708011468
19:08:01:17,1.1375122,-0.66737366,9.974503,0.69418335,0.4361267,-0.27005005,51.74942,-31.8756105,-236.62491,10.061313617228102,0.8631477575566741,244.30806908298962,44.43493749999803,26.047637237548816
19:08:01:18,1.1423035,-0.6841278,9.059921,0.72294617,0.36369324,-0.2785797,52.049255,-30.900574,-236.54938,9.157240668404762,0.855880007239015,244.17120960090466,44.43493749999802,26.047637394982953
19:08:01:19,1.1446991,-0.7415924,8.528412,0.7005768,0.26782227,-0.29881287,52.049255,-31.275177,-236.54938,8.636787976963575,0.807357264340781,244.21918197979298,44.434937499998014,26.047637552417086
19:08:01:20,1.1135712,-0.8565216,8.176453,0.6547699,0.16981506,-0.32118225,52.049255,-31.64978,-236.54938,8.296267457715247,0.748811601314961,244.2671543586813,44.434937499998,26.047637709851223
19:08:01:21,1.1853943,-1.0384674,8.128571,0.57699585,0.07606506,-0.36273193,51.649475,-31.14980033333333,-236.89982333333333,8.27992999302387,0.6857729633862442,244.4595994887116,44.43493749999799,26.04763786728536
19:08:01:22,1.120758,-1.1103058,8.075897,0.55888367,0.061157227,-0.3755188,51.249695,-30.649820666666667,-237.25026666666668,8.22854724837177,0.676095801022635,244.65204461874188,44.434937499997986,26.047638024719493
19:08:01:23,1.096817,-1.2324066,7.944214,0.5471802,0.0025634766,-0.39256287,50.849915,-30.149841,-237.60071,8.113714909769048,0.6734377102501431,244.8444897487722,44.43493749999798,26.04763818215363
19:08:01:24,1.132721,-1.2036743,7.6138153,0.5418396,-0.038986206,-0.4074707,50.849915,-30.45044,-238.34991,7.791153451629326,0.6790746996795893,245.60867808102572,44.434937499997964,26.047638339587767
19:08:01:25,1.1590576,-1.1533966,7.2786255,0.515213,-0.06561279,-0.41706848,51.14975,-30.1498415,-238.050075,7.460035348861262,0.6661047894964385,245.34332643269232,44.43493749999796,26.0476384970219
19:08:01:26,1.211731,-0.96424866,6.9171143,0.4502411,-0.08052063,-0.42771912,51.449585,-29.849243,-237.75024,7.0883381503662255,0.6262142329893032,245.07797478435893,44.43493749999795,26.047638654456037
19:08:01:27,1.2500458,-0.72483826,6.5986786,0.34477234,-0.093307495,-0.4543457,50.6248475,-29.624939,-238.57497999999998,6.755039916340645,0.5779310254353375,245.6818660235621,44.43493749999794,26.047638811890174
19:08:01:28,1.0561066,-0.4494934,6.5268555,0.19137573,-0.10076904,-0.49801636,49.80011,-29.400635,-239.39972,6.62700899238015,0.5429542929963848,246.28575726276526,44.43493749999793,26.04763896932431
19:08:01:29,0.8813324,-0.33937073,6.7040253,0.106155396,-0.09649658,-0.5193329,49.27520749999999,-29.325104000000003,-239.17464999999999,6.770219679944704,0.538783090931799,245.95272304587954,44.43493749999792,26.047639126758444
19:08:01:30,0.58924866,-0.35612488,6.960205,-0.12713623,-0.07839966,-0.5608673,48.750305,-29.249573,-238.94958,6.9941756165749664,0.5804155889326358,245.61968882899382,44.434937499997915,26.04763928419258
19:08:01:31,0.24926758,-0.3369751,7.398346,-0.24964905,-0.06561279,-0.5768585,48.300171,-28.3500675,-239.39971500000001,7.410209853990309,0.6319773851964456,245.86583770620916,44.43493749999791,26.047639424134037
19:08:01:32,-0.22717285,-0.40879822,7.9514008,-0.33061218,-0.042175293,-0.56300354,47.850037,-27.450562,-239.84985,7.965142696191508,0.6542600056220155,246.11198658342448,44.4349374999979,26.04763956407549
19:08:01:33,-0.591095,-0.5045624,8.269836,-0.34231567,0.010025024,-0.5054779,48.6747735,-27.750397,-239.025115,8.306272568451794,0.6105640231967157,245.50643024238047,44.43493749999789,26.047639704016945
19:08:01:34,-0.7874298,-0.6075134,8.351227,-0.32633972,0.045181274,-0.46287537,49.49951,-28.050232,-238.20038,8.41023844053405,0.5681483684061571,244.9008739013365,44.434937499997886,26.047639843958397
19:08:01:35,-0.89276123,-0.4734497,8.102234,-0.24432373,0.115478516,-0.33078003,48.600004999999996,-26.924896,-238.72528,8.165009064476118,0.4271355767733192,245.11013247702687,44.43493749999788,26.047639983899852
19:08:01:36,-0.7898102,-0.17416382,8.190826,-0.18572998,0.12294006,-0.24768066,47.7005,-25.79956,-239.25018,8.23065998268043,0.33309997472476577,245.31939105271724,44.43493749999787,26.047640123841305
19:08:01:37,-0.10028076,0.12271118,8.511642,-0.07388306,0.082458496,-0.19442749,48.3749385,-25.724792,-238.800045,8.513117161221686,0.22374127689196227,245.0059712280497,44.43493749999786,26.04764026378276
19:08:01:38,0.28279114,0.38128662,8.415878,0.07952881,0.04837036,-0.20187378,49.049377,-25.650024,-238.34991,8.429255769422204,0.2223005766929859,244.69255140338214,44.43493749999785,26.047640403724213
19:08:01:39,0.16307068,0.6733856,7.941818,0.20523071,-0.042175293,-0.25621033,48.1498715,-25.350189,-238.42468,7.971983025451511,0.3309714985696636,244.5572663827278,44.434937499997844,26.04764054366567
19:08:01:40,-0.04043579,0.8385773,7.410309,0.27020264,-0.16362,-0.29881287,47.250366,-25.050354,-238.49945,7.457715898093009,0.4348219202623144,244.42198136207344,44.43493749999784,26.04764068360712
19:08:01:41,-0.3947754,0.809845,6.8405,0.259552,-0.25202942,-0.31480408,46.950531,-26.625061,-238.05007999999998,6.89957511666263,0.479570305621796,244.09783548498012,44.43493749999783,26.047640823548576
19:08:01:42,-0.7682648,0.75239563,6.5124817,0.16687012,-0.27760315,-0.3020172,46.650696,-28.199768,-237.60071,6.600662684897406,0.44285836893365454,243.77368960788678,44.43493749999782,26.04764096349003
19:08:01:43,-1.0268402,0.7835083,6.4286957,0.022003174,-0.25949097,-0.2540741,46.200561500000006,-26.474762,-238.05007999999998,6.557165123412969,0.3638314877363216,243.9397428062485,44.434937499997815,26.047641103431484
19:08:01:44,-1.101059,0.82421875,6.553192,-0.14524841,-0.1998291,-0.18057251,45.750427,-24.749756,-238.49945,6.695968403315279,0.3059986947391086,244.1057960046102,44.43493749999781,26.047641243372937
19:08:01:45,-1.0148773,0.87210083,6.785431,-0.22940063,-0.16467285,-0.14755249,45.450592,-24.60022,-238.949585,6.916112321781868,0.31861188596271717,244.4749678486152,44.4349374999978,26.047641383314392
19:08:01:46,-0.76109314,0.9989929,7.489319,-0.44992065,-0.06880188,-0.064453125,45.150757,-24.450684,-239.39972,7.593888902648397,0.4596917394409242,244.8441396926202,44.434937499997794,26.047641523255844
19:08:01:47,-0.5168762,1.1378479,8.059143,-0.5500488,-0.03578186,-0.027175903,44.900512666666664,-24.350484333333334,-238.69985,8.15546716896769,0.5518809233796408,244.1037672234219,44.43493749999779,26.0476416631973
19:08:01:48,-0.18647766,1.2743225,8.894714,-0.6043854,-0.046432495,-0.017593384,44.65026833333334,-24.250284666666666,-237.99998,8.987469548959893,0.6064216482660034,243.3633947542236,44.43493749999778,26.047641803138752
19:08:01:49,-0.026062012,1.3533325,9.639313,-0.58839417,-0.08691406,-0.03250122,44.400024,-24.150085,-237.30011,9.733886335682923,0.595666082983714,242.6230222850253,44.43493749999777,26.047641943080208
19:08:01:50,0.09364319,1.4012146,10.53714,-0.5127716,-0.1486969,-0.06340027,44.999694500000004,-23.6251825,-238.20038,10.630310004034998,0.5376477248833504,243.5633473811804,44.43493749999776,26.04764208302166
19:08:01:51,0.009841919,1.3126373,11.039917,-0.38919067,-0.18278503,-0.090026855,45.599365,-23.10028,-239.10065,11.11768325289086,0.43930010178503354,244.50367247733544,44.43493749999775,26.047642222963116
19:08:01:52,-0.24873352,1.2719269,11.260193,-0.25071716,-0.20942688,-0.099609375,44.999695,-22.050476,-237.75024,11.334531873887169,0.3415270706296803,242.97401643380965,44.434937499997744,26.04764236290457
19:08:01:53,-0.6437683,1.2479858,11.238647,-0.13139343,-0.23286438,-0.076171875,43.574524,-21.974944999999998,-238.425445,11.326036048490025,0.27801476122854507,243.37350574871155,44.43493749999774,26.047642502846024
19:08:01:54,-0.907135,1.259964,11.102173,-0.051498413,-0.20410156,-0.015457153,42.149353,-21.899414,-239.10065,11.210202875570541,0.21106505375077508,243.77299506361345,44.43493749999773,26.047642642787476
19:08:01:55,-0.9358673,1.3485413,11.042313,-0.014221191,-0.15402222,0.074020386,42.8245545,-22.3495485,-238.65051499999998,11.163650282545758,0.1714762492906113,243.49187914494138,44.43493749999772,26.047642782728932
19:08:01:56,-0.76586914,1.4203644,11.004013,-0.0110321045,-0.11567688,0.15924072,43.499756,-22.799683,-238.20038,11.121703676710718,0.19713055268616206,243.2107632262693,44.434937499997716,26.047642922670384
19:08:01:57,-0.5503998,1.4730377,10.956131,-0.028076172,-0.07307434,0.23168945,43.125153,-21.524811,-238.20038,11.068404875799507,0.24455701143478115,243.03137819845261,44.43493749999771,26.04764306261184
19:08:01:58,-0.22479248,1.4850159,10.925003,-0.06854248,-0.028320312,0.28494263,42.75055,-20.249939,-238.20038,11.027760172960162,0.2944357553485049,242.85199317063595,44.4349374999977,26.047643202553292
19:08:01:59,0.21574402,1.6406403,11.212311,-0.12394714,-0.040039062,0.31370544,42.300415,-20.175171,-237.900545,11.333762130769767,0.3396720816988247,242.47306339131796,44.434937499997694,26.047643342494748
19:08:01:60,0.67063904,1.6190948,11.753387,-0.15057373,-0.08905029,0.307312,41.85028,-20.100403,-237.60071,11.883321533356243,0.3536142922156809,242.09413361199998,44.43493749999769,26.0476434824362
19:08:01:61,0.9699249,1.5640259,12.280121,-0.13885498,-0.14762878,0.26683044,41.999816499999994,-20.249938999999998,-237.45040999999998,12.417258276372921,0.3350722994604036,241.98511783276155,44.43493749999768,26.047643622377656
19:08:01:62,1.1111755,1.4850159,13.053452,-0.10050964,-0.20835876,0.21144104,42.149353,-20.399475,-237.30011,13.184558859945108,0.313405287125072,241.8761020535231,44.43493749999767,26.047643762319108
19:08:01:63,1.2093353,1.4084015,13.668762,-0.008895874,-0.24456787,0.14433289,42.299651499999996,-19.7250365,-238.124845,13.794243047941134,0.28412068341870655,242.6568101821774,44.43493749999766,26.047643902260564
19:08:01:64,1.0321655,1.1354675,14.023102,0.10934448,-0.1998291,0.07827759,42.44995,-19.050598,-238.94958,14.106808347934358,0.24086358298731775,243.43751831083168,44.43493749999765,26.047644042202016
19:08:01:65,0.7328949,0.8385773,13.944092,0.23504639,-0.058151245,0.03781128,41.474914,-18.675232,-239.09987999999998,13.988497007433832,0.24506747161204506,243.39021620642805,44.434937499997645,26.047644182143472
19:08:01:66,0.60121155,0.67099,13.407791,0.32453918,0.13891602,0.028213501,40.499878,-18.299866,-239.25018,13.438025986268757,0.3541459326413192,243.34291410202442,44.43493749999764,26.047644322084924
19:08:01:67,0.38095093,0.6638031,12.648819,0.37672424,0.35516357,0.031417847,40.200043,-18.9750675,-238.800045,12.671952503911877,0.5186997161834946,242.90350651321478,44.43493749999763,26.04764446202638
19:08:01:68,0.03857422,0.8266144,11.650436,0.35968018,0.52667236,0.02609253,39.900208,-19.650269,-238.34991,11.67978759767625,0.6383059037754569,242.46409892440514,44.43493749999762,26.047644601967832
19:08:01:69,-0.35646057,0.9894104,10.800507,0.27127075,0.61828613,0.028213501,38.625336000000004,-19.650269,-239.09987999999998,10.851587373957871,0.6757673860098727,242.99938988833054,44.434937499997616,26.047644741909288
19:08:01:70,-0.7203827,1.0540619,10.450943,0.12426758,0.6214905,0.04525757,37.350464,-19.650269,-239.84985,10.528637486053924,0.6354062642684688,243.53468085225595,44.43493749999761,26.04764488185074
19:08:01:71,-0.85446167,1.0181427,10.565872,-0.028076172,0.5469208,0.07295227,38.325500500000004,-18.675232,-240.299985,10.649148812156138,0.5524786571488227,244.05639287108397,44.4349374999976,26.047645021792196
19:08:01:72,-0.986145,0.87449646,11.01358,-0.13885498,0.4126892,0.11024475,39.300537,-17.700195,-240.75012,11.092167075733107,0.4491625386984125,244.578104889912,44.434937499997595,26.047645161733648
19:08:01:73,-0.9143219,0.5656433,11.705505,-0.1953125,0.25610352,0.16030884,38.925171,-17.099762,-240.97519,11.754777079327345,0.3597706349812141,244.69808065269876,44.43493749999759,26.047645301675104
19:08:01:74,-0.75390625,0.26397705,12.395035,-0.17507935,0.10696411,0.21569824,38.549805,-16.499329,-241.20026,12.420746803954293,0.29769083016379966,244.81805641548553,44.43493749999758,26.047645441616556
19:08:01:75,-0.3875885,-0.11192322,13.096542,-0.07493591,0.008956909,0.26896667,38.0996705,-17.174529999999997,-241.425325,13.10275406203869,0.27935405205088987,245.01715543116518,44.434937499997574,26.04764558155801
19:08:01:76,-0.05479431,-0.41358948,13.290466,0.10722351,-0.022994995,0.30944824,37.649536,-17.849731,-241.65039,13.2970126408728,0.32830452956191103,245.21625444684483,44.43493749999756,26.047645721499467
19:08:01:77,0.13195801,-0.641037,12.904999,0.32240295,-0.0059509277,0.3264923,37.84993466666666,-17.549641666666666,-241.60003666666665,12.921584289156387,0.45888593099863406,245.17636001149373,44.43493749999755,26.04764586144092
19:08:01:78,0.12477112,-0.6841278,11.885071,0.4172058,0.013214111,0.3296814,38.050333333333334,-17.249552333333334,-241.54968333333332,11.905398412239714,0.531907057472563,245.13646557614263,44.434937499997545,26.047646001382375
19:08:01:79,0.06970215,-0.70329285,10.750229,0.59085083,0.0867157,0.33607483,38.250732,-16.949463,-241.49933,10.773435049927981,0.685252221665649,245.09657114079153,44.43493749999754,26.047646141323828
19:08:01:80,0.012237549,-0.6985016,9.687195,0.60150146,0.11654663,0.34353638,38.250732,-16.949463,-241.49933,9.7123530213246,0.7024274821858787,245.09657114079153,44.43493749999753,26.047646281265283
19:08:01:81,-0.030853271,-0.7104645,8.947388,0.5375824,0.19857788,0.35525513,38.250732,-16.949463,-241.49933,8.975603809919177,0.6742656884391874,245.09657114079153,44.434937499997524,26.047646421206736
19:08:01:82,-0.07394409,-0.75357056,8.616989,0.42626189999999997,0.24385071000000003,0.36484527499999997,37.575531,-17.024994,-241.79992499999997,8.650192815392362,0.6212905427633196,245.29469498188826,44.43493749999752,26.04764656114819
19:08:01:83,-0.30140686,-0.94270325,7.9274597,0.3149414,0.28912354,0.37443542,36.90033,-17.100525,-242.10052,7.989001990733242,0.5683153970874518,245.49281882298496,44.43493749999751,26.047646701089644
19:08:01:84,-0.32055664,-1.0121307,7.7838135,0.223327635,0.28326417000000004,0.38987731000000003,36.5249635,-16.7251585,-242.77496,7.855884273340133,0.5384142719602538,246.07698086689612,44.4349374999975,26.0476468410311
19:08:01:85,-0.39956665,-1.0552368,7.6976166,0.13171387,0.2774048,0.4053192,36.149597,-16.349792,-243.4494,7.779876575657356,0.5085131468330557,246.66114291080726,44.434937499997496,26.04764698097255
19:08:01:86,-0.43787384,-1.1450195,7.7814103,0.014007569999999997,0.136787422,0.44153595,36.074828499999995,-16.4245605,-244.1246,7.87782365504,0.4987027523209366,247.3216742183578,44.43493749999749,26.047647120914007
19:08:01:87,-0.47618103,-1.2348022,7.865204,-0.10369873,-0.003829956,0.4777527,36.00006,-16.499329,-244.7998,7.975770734422643,0.48889235780881746,247.98220552590834,44.43493749999748,26.04764726085546
19:08:01:88,-0.26309204,-1.2156525,8.111816,-0.14950562,-0.14976501,0.5075836,36.450194999999994,-16.049957499999998,-245.249935,8.206618502167846,0.5499296315173828,248.46352645155397,44.43493749999747,26.047647400796915
19:08:01:89,-0.11705017,-1.1150818,8.4039,-0.17507935,-0.29037476,0.5203705,36.90033,-15.600586,-245.70007,8.47836324846891,0.6210923742179822,248.9448473771996,44.43493749999746,26.047647540738367
19:08:01:90,0.1439209,-1.0456543,8.966537,-0.16868591,-0.41075134,0.5065155,36.2251285,-15.299987999999999,-245.62530500000003,9.028449031419202,0.6735945006341528,248.7542070524229,44.43493749999745,26.047647680679823
19:08:01:91,0.45996094,-0.9762268,9.474121,-0.10797119,-0.4608307,0.47242737,35.549927,-14.99939,-245.55054,9.535384184919081,0.6687378648301762,248.56356672764622,44.434937499997446,26.047647820621275
19:08:01:92,0.5150299,-1.0145264,9.572281,-0.00036621094,-0.42567444,0.4191742,34.049988,-14.700317,-244.50073,9.639661983552742,0.5974159965429502,247.29761012438743,44.43493749999744,26.04764796056273
19:08:01:93,0.47431946,-1.0097504,9.428619,0.052886963,-0.38838196,0.38934326,34.35007733333333,-14.250183,-245.30029,9.494389452070935,0.5524723991442764,248.10439324056625,44.43493749999743,26.047648100504183
19:08:01:94,0.23251343,-0.937912,8.540375,0.17112732,-0.23924255,0.33714294,34.65016666666667,-13.800049,-246.09985,8.594867454213551,0.4474225289060984,248.91117635674505,44.434937499997424,26.04764824044564
19:08:01:95,0.29714966,-0.8565216,7.9346466,0.18179321,-0.12632751,0.30519104,34.950256,-13.349915,-246.89941,7.986272211651455,0.3770265002372987,249.71795947292387,44.43493749999742,26.04764838038709
19:08:01:96,0.21574402,-0.71525574,7.386368,0.15408325,0.0025634766,0.26683044,34.799958000000004,-13.500214,-246.674345,7.424053373137394,0.30813422895458215,249.48259613379366,44.43493749999741,26.047648520328547
19:08:01:97,0.12956238,-0.63145447,6.960205,0.080581665,0.103759766,0.2284851,34.64966,-13.650513,-246.44928,6.98999104434471,0.2635620129998953,249.24723279466346,44.4349374999974,26.04764866027
19:08:01:98,-0.0021209717,-0.5787811,6.658539,-0.012084961,0.15596008,0.192276,33.89969,-13.2751465,-246.82464499999998,6.683646734736896,0.24787023421939539,249.49670517562583,44.434937499997396,26.047648800211455
19:08:01:99,-0.10267639,-0.5261078,6.6465607,-0.06535339,0.16767883,0.1773529,33.14972,-12.89978,-247.20001,6.668140745145439,0.2526683730763924,249.74617755658824,44.43493749999739,26.047648940152907
19:08:02:00,-0.32772827,-0.45188904,6.7758484,-0.21662903,0.13146973,0.13900757,33.449555000000004,-14.174652,-247.27478,6.798803649408613,0.2890251391528403,249.9325836221495,44.43493749999738,26.047649080094363
19:08:02:01,-0.5001221,-0.49499512,7.118225,-0.30503845,0.08778381,0.118759155,33.74939,-15.449524,-247.34955,7.152920343073674,0.33890734747543116,250.11898968771078,44.43493749999737,26.047649220035815
19:08:02:02,-0.53842163,-0.5356903,7.580307,-0.35617065,0.052627563,0.11238098,32.474518,-13.800049000000001,-248.02474999999998,7.6182620172461215,0.37716929484583156,250.53132384249685,44.43493749999736,26.04764935997727
19:08:02:03,-0.56954956,-0.585968,8.114212,-0.36575317,0.027069092,0.11450195,31.199646,-12.150574,-248.69995,8.155254844532093,0.3842119384669819,250.9436579972829,44.43493749999735,26.047649499918723
19:08:02:04,-0.42829895,-0.54048157,8.655304,-0.32315063,-0.015548706,0.11343384,31.424713,-12.900543500000001,-249.224855,8.682732729417435,0.3428342573092965,251.5303349584429,44.434937499997346,26.04764963986018
19:08:02:05,-0.29421997,-0.4447174,9.15329,-0.23046875,-0.06135559,0.111312866,31.64978,-13.650513,-249.74976,9.168808907415922,0.263193668783929,252.11701191960287,44.43493749999734,26.04764977980163
19:08:02:06,-0.28224182,-0.31063843,9.366379,-0.11116028,-0.09011841,0.10491943,32.474517500000005,-12.675476,-249.824525,9.37577795443081,0.1774430118717877,252.24823989134185,44.43493749999733,26.047649919743087
19:08:02:07,-0.22956848,-0.1598053,9.325668,0.010284424,-0.11141968,0.10171509,33.299255,-11.700439,-249.89929,9.329861899682202,0.15121532330429438,252.37946786308083,44.434937499997325,26.04765005968454
19:08:02:08,-0.23675537,0.012573242,9.057526,0.104019165,-0.1210022,0.10491943,32.44934066666667,-11.950174666666666,-250.04933666666668,9.060628478881265,0.19097017014094667,252.43226031982726,44.43493749999732,26.047650199625995
19:08:02:09,-0.170913695,0.18016815100000003,8.664878999999999,0.1141433725,-0.0698699965,0.11290740799999999,31.599426333333334,-12.199910333333333,-250.19938333333334,8.670416941581953,0.18267629833427682,252.48505277657372,44.43493749999731,26.047650339567447
19:08:02:10,-0.10507202,0.34776306,8.272232,0.12426758,-0.018737793,0.120895386,30.749512,-12.449646,-250.34943,8.280205404282642,0.17438242652760697,252.53784523332016,44.434937499997304,26.047650479508903
19:08:02:11,0.009841919,0.56085205,8.1046295,0.06248474,0.018539429,0.123031616,33.450317,-12.150574,-249.74976,8.124018169454635,0.13922942108651137,252.27267544462197,44.4349374999973,26.047650619450355
19:08:02:12,0.16067505,0.8840637,8.221954,-0.028076172,0.016418457,0.10810852,31.874847,-11.700439500000002,-250.19989,8.270907608930607,0.11289503647647595,252.4989648467713,44.43493749999729,26.04765075939181
19:08:02:13,0.22532654,0.9487152,8.382355,-0.12394714,-0.018737793,0.087875366,30.299377,-11.250305,-250.65002,8.438880727108566,0.15308846576513988,252.72525424892058,44.43493749999728,26.047650899333263
19:08:02:14,0.35940552,1.1067352,8.89711,-0.21768188,-0.093307495,0.04953003,30.07431,-11.8499755,-250.87509,8.972881448165104,0.24196056161141286,252.94981184829396,44.43493749999727,26.04765103927472
19:08:02:15,0.5748749,1.2072906,9.766205,-0.2922516,-0.18492126,-0.0079956055,29.849243,-12.449646,-251.10016,9.857321737953132,0.3459346756395768,253.17436944766735,44.43493749999726,26.04765117921617
19:08:02:16,0.82388306,1.0756073,10.709518,-0.3156891,-0.21794128,-0.07723999,30.2993775,-11.8499755,-250.724795,10.79488259096375,0.39131065081600896,252.82796552797407,44.434937499997254,26.047651319157627
19:08:02:17,0.7352905,0.64704895,11.74382,-0.29013062,-0.18278503,-0.1486206,30.749512,-11.250305,-250.34943,11.784593020358672,0.37373015211251726,252.48156160828077,44.43493749999725,26.04765145909908
19:08:02:18,0.61798096,0.5081787,12.093369,-0.23686218,-0.1210022,-0.19015503,30.4496765,-11.550140500000001,-250.799565,12.119806922068404,0.3269620163772748,252.9055416826261,44.43493749999724,26.047651599040535
19:08:02:19,0.586853,0.50338745,12.198715,-0.16442871,-0.051757812,-0.20826721,30.149841,-11.849976,-251.2497,12.223192832466134,0.2703532920762674,253.32952175697142,44.43493749999723,26.047651738981987
19:08:02:20,0.5485382,0.47225952,12.217865,-0.12820435,-0.025131226,-0.21147156,30.149841,-11.3250735,-251.625065,12.239287085827952,0.24857223209364954,253.67841499305268,44.434937499997226,26.047651878923443
19:08:02:21,0.5198059,0.45310974,11.873108,-0.05895996,0.03239441,-0.22105408,30.149841,-10.800171,-252.00043,11.893115663686354,0.2310640191961875,254.02730822913395,44.43493749999722,26.04765205884817
19:08:02:22,0.46235657,0.4985962,11.719879,-0.055770874,0.037719727,-0.22531128,29.775238,-11.174774,-252.7504,11.739588388998893,0.23515599309164292,254.74405675781816,44.434937499997204,26.047652238772894
19:08:02:23,0.21574402,0.5584564,11.609741,-0.11968994,0.04197693,-0.2263794,29.400635,-11.549377,-253.50037,11.625166885681587,0.25949061087790537,255.46080528650234,44.4349374999972,26.047652418697623
19:08:02:24,0.16786194,0.4650879,11.858734,-0.18786621,0.02067566,-0.2071991,28.650665500000002,-10.5743405,-253.27530000000002,11.869037722932006,0.2804508206745163,255.1127153652513,44.43493749999718,26.04765259862235
19:08:02:25,0.2995453,0.30467224,12.179565,-0.23260498,-0.06454468,-0.16566467,27.900696,-9.599304,-253.05023,12.187056910911826,0.2927727366462112,254.76462544400025,44.434937499997176,26.047652778547075
19:08:02:26,0.47431946,0.1945343,12.435745,-0.22727966,-0.09437561,-0.15501404,27.300263,-9.599304,-253.05023,12.446307735591155,0.29084730050270247,254.7002675264642,44.43493749999717,26.0476529584718
19:08:02:27,0.5964203,0.16819763,12.543488,-0.20170593,-0.16894531,-0.12625122,26.69983,-9.599304,-253.05023,12.558785722478655,0.2918341489950232,254.63590960892813,44.434937499997154,26.04765313839653
19:08:02:28,0.96273804,0.51297,12.63446,-0.15483093,-0.30104065,-0.11665344,26.9248965,-9.824371,-254.025265,12.681466092142623,0.3580588148627555,255.63715123966938,44.43493749999715,26.047653318321256
19:08:02:29,1.3051147,0.67099,12.804443,-0.14205933,-0.3766632,-0.14222717,27.149963,-10.049438,-255.0003,12.88826258657485,0.4269479914000039,256.6383928704106,44.43493749999713,26.04765349824598
19:08:02:30,1.7037506000000002,0.577613835,13.240188499999999,-0.13726044,-0.37294006,-0.188034055,26.999664,-10.2745055,-254.700465,13.366661283991425,0.44180970330109776,256.33365848782114,44.434937499997126,26.047653678170708
19:08:02:31,2.1023865,0.48423767,13.675934,-0.13246155,-0.36921692,-0.23384094,26.849365,-10.499573,-254.40063,13.845059981408,0.4566714152021916,256.0289241052316,44.43493749999712,26.047653858095437
19:08:02:32,2.1933594,0.37409973,13.774094,-0.079208374,-0.2467041,-0.3254547,26.599629666666665,-10.649617666666666,-254.15038666666666,13.952649984371801,0.4160019726162652,255.7606787452854,44.434937499997105,26.047654038020163
19:08:02:33,2.123932,0.12271118,13.649597,0.006546020499999999,-0.07093811,-0.44689178,26.349894333333335,-10.799662333333334,-253.90014333333335,13.814399858000709,0.500621023277308,255.49243338533918,44.4349374999971,26.04765421794489
19:08:02:34,1.5971985,-0.1598053,12.708679,0.092300415,0.10482788,-0.56832886,26.100159,-10.949707,-253.6499,12.809648812803236,0.5852400739383508,255.22418802539295,44.43493749999708,26.047654397869614
19:08:02:35,1.3529968,-0.29866028,12.442932,0.10189819,0.15916443,-0.5992279,22.950745,-10.350037,-255.59998,12.519838459831817,0.6283236690121669,256.8369321923091,44.434937499997076,26.04765457779434
19:08:02:36,0.7927551,-0.7775116,11.695938,0.09869385,0.2507782,-0.6290436,23.6251835,-11.3998415,-256.64979,11.748529722333538,0.6843435046261654,257.98944004000145,44.43493749999707,26.04765475771907
19:08:02:37,0.6969757,-0.93551636,11.56665,0.0869751,0.3104248,-0.61946106,24.299622,-12.449646,-257.6996,11.625332606369511,0.6983267353691778,259.14194788769373,44.434937499997055,26.047654937643795
19:08:02:38,0.49586487,-1.2324066,11.327225,0.08804321,0.33706665,-0.5896301,25.1251225,-11.3998415,-257.624825,11.404855728927423,0.6848570567609978,259.1014591152844,44.43493749999705,26.04765511756852
19:08:02:39,0.45037842,-1.4023895,11.253006,0.117874146,0.32107544,-0.5470276,25.950623,-10.350037,-257.55005,11.348994716138867,0.6451534295252431,259.06097034287507,44.434937499997034,26.047655297493247
19:08:02:40,0.56649781,-1.51611325,10.9453505,0.14556885,0.3050995,-0.52145386,24.2256165,-11.2503055,-257.174685,11.066224581356277,0.621441970822274,258.5651749367909,44.43493749999703,26.047655477417976
19:08:02:41,0.6826172,-1.629837,10.637695,0.3298645,0.25183105,-0.41067505,22.50061,-12.150574,-256.79932,10.783454446573687,0.5838522611045152,258.0693795307068,44.43493749999702,26.047655657342702
19:08:02:42,0.95077515,-1.6274414,10.04393,0.4268036,0.25717163,-0.36380005,22.750345666666668,-11.700439666666668,-257.39949666666666,10.219249910888346,0.6169676139229834,258.6687290004931,44.434937499997005,26.047655837267428
19:08:02:43,1.136322025,-1.4598540999999998,9.174835,0.47100830000000005,0.258766175,-0.351013185,23.000081333333334,-11.250305333333333,-257.99967333333336,9.364111053046603,0.6430092855982694,259.26807847027936,44.434937499997,26.047656017192153
19:08:02:44,1.3218689,-1.2922668,8.30574,0.515213,0.26036072,-0.33822632,23.249817,-10.800171,-258.59985,8.508972195204862,0.6690509572735555,259.8674279400657,44.434937499996984,26.04765619711688
19:08:02:45,1.3793335,-1.2324066,7.944214,0.5109558,0.24224854,-0.34143066,22.50061,-12.600708,-258.29926,8.156710305615972,0.6605566442583158,259.58344132286436,44.43493749999698,26.04765637704161
19:08:02:46,1.527771,-1.0432587,7.055969,0.42466736,0.21029663,-0.36912537,23.475647000000002,-13.1256105,-259.19953,7.294461698612701,0.6006834257879632,260.59317173640216,44.43493749999697,26.047656556966334
19:08:02:47,1.5014343,-0.720047,6.76149,0.31921387,0.17832947,-0.4074707,24.450684,-13.650513,-260.0998,6.96351345654803,0.5474771831130023,261.6029021499399,44.434937499996956,26.04765673689106
19:08:02:48,1.4511566,-0.59794617,6.6250153,0.25636292,0.15916443,-0.43197632,24.450684,-13.87558,-258.975225,6.808393556866063,0.5269333957616406,260.49688459067715,44.43493749999695,26.047656916815786
19:08:02:49,1.1638489,-0.42077637,6.5627594,0.12638855,0.12294006,-0.48417664,24.450684,-14.100647,-257.85065,6.678428554523133,0.5152818089604907,259.3908670314145,44.434937499996934,26.047657096740515
19:08:02:50,0.9794922,-0.3369751,6.658539,-0.0030364999999999975,0.059555052,-0.510810855,23.25058,-14.9253845,-259.04999,6.738627367825131,0.5344115378839129,260.52356848702215,44.43493749999693,26.04765727666524
19:08:02:51,0.18940735,-0.37049866,7.403137,-0.13246155,-0.003829956,-0.53744507,22.050476,-15.750122,-260.24933,7.414821767383543,0.5535412668073351,261.6562699426298,44.43493749999692,26.047657456589967
19:08:02:52,-0.023666382,-0.3585205,7.6305847,-0.15164185,-0.015548706,-0.5246582,22.275543,-16.049957,-260.324865,7.639039200739274,0.5463545000793321,261.7689245185138,44.434937499996906,26.047657636514693
19:08:02:53,-0.42111206,-0.38246155,8.133362,-0.13246155,-0.018737793,-0.45220947,22.50061,-16.349792,-260.4004,8.153231851686167,0.47158304875450546,261.88157909439786,44.4349374999969,26.047657816439422
19:08:02:54,-0.4857483,-0.29626465,8.152512,-0.06535339,-0.008087158,-0.3840332,22.050476000000003,-15.2999875,-260.17533000000003,8.17234214065567,0.38963825070345576,261.5583421235258,44.434937499996884,26.047657996364148
19:08:02:55,-0.457016,-0.11669922,7.9298553,0.014541626,0.0025634766,-0.32225037,21.600342,-14.250183,-259.95026,7.943871059574336,0.3225884859447707,261.2351051526537,44.43493749999688,26.047658176288873
19:08:02:56,-0.3373108,0.13468933,7.520447,0.07846069,-0.0016937256,-0.27964783,21.250407,-14.649963333333334,-260.40039333333334,7.529212632886754,0.29045112739563106,261.67755796053245,44.43493749999687,26.0476583562136
19:08:02:57,-0.28703308,0.25679016,7.240326,0.09550476,-0.0059509277,-0.26686096,20.900472,-15.049743666666666,-260.85052666666667,7.250562030736866,0.28349840333813137,262.12001076841113,44.434937499996856,26.047658536138325
19:08:02:58,-0.22717285,0.5871887,6.4047546,0.082717896,-0.009155273,-0.2540741,20.550537,-15.449524,-261.30066,6.435625809461421,0.2673569105768193,262.5624635762899,44.43493749999685,26.047658716063054
19:08:02:59,-0.24873352,0.6446533,6.2180023,0.019866943,-0.027267456,-0.2540741,20.84961,-14.700317,-262.5,6.2562767557052466,0.25630422913344053,263.73671636132235,44.434937499996835,26.04765889598778
19:08:02:60,-0.4378662,0.80744934,6.232361,-0.13352966,-0.09223938,-0.26153564,21.224975999999998,-15.4502865,-261.90033,6.299684506393148,0.30779727794883044,263.21433069734906,44.43493749999683,26.047659075912506
19:08:02:61,-0.68685913,0.8122406,6.5388184,-0.18891907,-0.11993408,-0.26260376,21.600342,-16.200256,-261.30066,6.624775945262699,0.34501497550287424,262.69194503337576,44.43493749999682,26.04765925583723
19:08:02:62,-0.8784027,0.7116852,7.0799103,-0.30822754,-0.20089722,-0.22319031,21.524811,-17.549896,-262.350465,7.169603683838628,0.43032292978189773,263.8195229990451,44.434937499996806,26.04765943576196
19:08:02:63,-0.95980835,0.63986206,7.328903,-0.33273315,-0.21687317,-0.19761658,21.44928,-18.899536,-263.40027,7.419128972323245,0.4436187931835934,264.9471009647144,44.4349374999968,26.047659615686687
19:08:02:64,-1.0843048,0.73083496,7.915497,-0.38279724,-0.26800537,-0.11026001,21.149445,-17.6994325,-263.10043499999995,8.022775666505343,0.4801227708676757,264.54463877854937,44.434937499996785,26.047659795611413
19:08:02:65,-1.0843048,0.8218231,8.162094,-0.4105072,-0.28825378,-0.0463562,20.84961,-16.499329,-262.8006,8.274713806037804,0.5037413028674227,264.1421765923843,44.43493749999678,26.04765997553614
19:08:02:66,-0.9358673,0.8505554,8.514038,-0.45736694,-0.26161194,0.013305664,20.7748415,-17.3248295,-262.20016499999997,8.60744649458377,0.5270696022822869,263.5932786647637,44.43493749999677,26.047660155460868
19:08:02:67,-0.74432373,0.9487152,8.933029,-0.5063782,-0.21582031,0.062301636,20.700073,-18.15033,-261.59973,9.014049337594793,0.5539664082704046,263.0443807371432,44.43493749999676,26.047660335385594
19:08:02:68,-0.750312815,1.0373001,9.391517499999999,-0.53141023,-0.165748595,0.10331726299999999,19.950103499999997,-17.250061000000002,-262.5,9.47849899230558,0.5701730370149399,263.82455531354725,44.43493749999675,26.04766051531032
19:08:02:69,-0.7563019,1.125885,9.850006,-0.55644226,-0.11567688,0.14433289,19.200134,-16.349792,-263.40027,9.942948647016367,0.5863796657594753,264.60472988995133,44.434937499996735,26.047660695235045
19:08:02:70,-0.70362854,1.1546173,10.527557,-0.521286,-0.11035156,0.18693542,19.125366,-16.6496275,-263.850405,10.614032721826838,0.5646781488963514,265.0662390075737,44.43493749999673,26.04766087515977
19:08:02:71,-0.6509552,1.1450348,11.094986,-0.42648315,-0.10928345,0.23274231,19.050598,-16.949463,-264.30054,11.172894061334963,0.4979957153851437,265.5277481251961,44.43493749999672,26.0476610550845
19:08:02:72,-0.51927185,1.17736055,11.26018525,-0.27414702999999996,-0.121536255,0.284942625,19.200134,-16.574859500000002,-263.40027,11.334337442866122,0.44031093380248865,264.61901050366964,44.43493749999671,26.047661235009226
19:08:02:73,-0.3875885,1.2096863,11.4253845,-0.12181091,-0.13378906,0.33714294,19.34967,-16.200256,-262.5,11.49578082439728,0.3826261522198336,263.7102728821432,44.4349374999967,26.047661414933952
19:08:02:74,-0.34928894,1.3269958,11.305679,-0.05470276,-0.14337158,0.35739136,18.674469000000002,-16.049957,-263.7001,11.388647780481445,0.38894265143586865,264.84845275160353,44.434937499996686,26.047661594858678
19:08:02:75,-0.20323181,1.5640259,10.848389,0.07418823,-0.20303345,0.39892578,17.999268,-15.899658,-264.9002,10.962436958988073,0.45372706910437227,265.9866326210638,44.43493749999668,26.047661774783407
19:08:02:76,-0.0332489,1.6645813,10.5395355,0.082717896,-0.2190094,0.40852356,18.374634,-15.525055,-264.15023499999995,10.670227033639964,0.4708490911981252,265.24383703906926,44.43493749999667,26.047661954708133
19:08:02:77,0.08406067,1.6478271,10.467712,0.013473511,-0.24351501,0.42982483,18.75,-15.150452,-263.40027,10.596952149683384,0.49419680298287655,264.5010414570748,44.43493749999666,26.04766213463286
19:08:02:78,0.2803955,1.611908,10.790924,-0.083465576,-0.23391724,0.43621826,18.0000305,-15.750122000000001,-264.524835,10.91425259972758,0.5019662816401685,265.6057643668239,44.43493749999665,26.047662314557584
19:08:02:79,0.4695282,1.5664215,11.461304,-0.16442871,-0.22647095,0.43301392,17.250061,-16.349792,-265.6494,11.577375455027513,0.5155840831328417,266.71048727657296,44.434937499996636,26.04766249448231
19:08:02:80,0.7137451,1.441925,12.263367,-0.20809937,-0.22647095,0.41384888,17.324829,-16.6496275,-265.34956999999997,12.368457864668821,0.5156213091655093,266.43547784477784,44.43493749999663,26.04766267440704
19:08:02:81,0.883728,1.2719269,13.017532,-0.18572998,-0.20835876,0.37123108,17.399597,-16.949463,-265.04974,13.109344475905406,0.46445830070901345,266.1604684129827,44.43493749999662,26.047662854331765
19:08:02:82,0.9316101,1.204895,13.347931,-0.15696716,-0.19024658,0.34779358,16.6496275,-15.9744265,-264.900205,13.43454246784043,0.42637169794602736,265.90596410316647,44.43493749999661,26.04766303425649
19:08:02:83,1.0058289,0.9487152,13.989578,0.0017547607,-0.072006226,0.26683044,15.899658,-14.99939,-264.75067,14.057739680505904,0.27638100419252937,265.6514597933502,44.4349374999966,26.047663214181217
19:08:02:84,1.0202026,0.7188721,13.922546,0.14556885,0.08778381,0.20932007,16.399637666666667,-15.249634,-264.6006266666667,13.978371777976188,0.26965010493831354,265.54781081447453,44.434937499996586,26.047663394105946
19:08:02:85,0.8621826,0.63027954,13.26413,0.241439825,0.229469305,0.149131775,16.89961733333333,-15.499877999999999,-264.4505833333333,13.307056616366571,0.38950396992905884,265.4441618355989,44.43493749999658,26.047663574030672
19:08:02:86,0.45037842,0.75,12.4405365,0.3373108,0.3711548,0.08894348,17.399597,-15.750122,-264.30054,12.47125852225965,0.5093578349198041,265.3405128567232,44.43493749999657,26.047663753955398
19:08:02:87,0.2301178,0.80267334,12.031128,0.34584045,0.3988495,0.06550598,17.999268,-17.399597,-266.99982,12.060069636822485,0.5319563646787328,268.17088489306707,44.43493749999656,26.047663933880123
19:08:02:88,-0.36125183,0.67099,11.248215,0.28085327,0.36262512,0.027145386,17.999268,-18.3746335,-267.224885,11.273999784947815,0.4594697040130027,268.4616486110246,44.43493749999655,26.047664113804853
19:08:02:89,-0.6294098,0.52493286,11.099777,0.19456482,0.27101135,0.02609253,17.999268,-19.34967,-267.44995,11.129993740050926,0.3346392701585631,268.75241232898213,44.434937499996536,26.04766429372958
19:08:02:90,-0.70482635,0.33100891,11.4457395,0.09550476,0.15809631,0.0473938,17.8497315,-18.3746335,-267.974855,11.47413824856056,0.19068763645478878,269.1984632280579,44.43493749999653,26.047664473654304
19:08:02:91,-0.7802429,0.13708496,11.791702,-0.004638672,0.05795288,0.08148193,17.700195,-17.399597,-268.49976,11.818282757070193,0.10009674567508617,269.64451412713373,44.43493749999653,26.04766451708441
19:08:02:92,-0.6916504,-0.004180908,12.124496,-0.044052124,0.026000977,0.0942688,17.774963,-17.8497315,-268.27468999999996,12.144208537810435,0.10725319150172598,269.4551809478593,44.43493749999652,26.047664560514516
19:08:02:93,-0.5815277,-0.5572357,13.357513,-0.095184326,-0.0016937256,0.13580322,17.849731,-18.299866,-268.04962,13.381772664202257,0.1658476384663067,269.2658477685849,44.43493749999652,26.047664603944625
19:08:02:94,-0.47857666,-0.90200806,13.991974,-0.04084778,0.05050659,0.17842102,17.2500605,-19.0498355,-268.04962,14.02918353206906,0.18987763728832552,269.2804884253328,44.43493749999652,26.04766464737473
19:08:02:95,-0.38998413,-1.2898712,14.243362,0.10083008,0.1804657,0.22955322,16.65039,-19.799805,-268.04962,14.306963912629586,0.30891625842882536,269.29512908208073,44.434937499996515,26.047664690804837
19:08:02:96,-0.25830078,-1.6226654,13.769318,0.29577637,0.35836792,0.28707886,17.30041466666667,-19.44987,-268.29986333333335,13.867006904102622,0.546191815202684,269.56166565083146,44.434937499996515,26.047664734234942
19:08:02:97,-0.17449951,-1.625061,13.297653,0.45982361,0.44358825999999996,0.32009888,17.950439333333332,-19.099935,-268.55010666666664,13.397718038573593,0.7185019949112519,269.8282022195822,44.434937499996515,26.047664777665048
19:08:02:98,-0.023666382,-1.3760529,11.463699,0.62387085,0.5288086,0.3531189,18.600464,-18.75,-268.80035,11.546015609024456,0.8908121746198199,270.0947387883329,44.43493749999651,26.047664821095157
19:08:02:99,-0.0021209717,-1.3616943,10.156464,0.66648865,0.5309448,0.35739136,18.225097499999997,-20.7748415,-269.69986,10.247339988917584,0.9240335954003578,271.11946194630383,44.43493749999651,26.047664864525263
19:08:03:00,-0.021270752,-1.4143677,9.605789,0.7005768,0.5064392,0.36483765,17.849731,-22.799683,-270.59937,9.709380554299791,0.9382936783610996,272.14418510427475,44.43493749999651,26.04766490795537
19:08:03:01,-0.12184143,-1.3712616,8.490097,0.6324005,0.3530426,0.368042,16.949463,-23.849487,-270.75043,8.60098545395282,0.8124188473804692,272.32678471156015,44.4349374999965,26.047664951385475
19:08:03:02,-0.2678833,-1.2707062,8.1596985,0.5343933,0.21136475,0.37548828,17.324829,-23.4748835,-270.375065,8.2623928325903,0.6864711975347625,271.9451638120459,44.4349374999965,26.04766499481558
19:08:03:03,-0.318161,-1.2659302,8.073502,0.42147827,0.05050659,0.38827515,17.700195,-23.10028,-269.9997,8.178339699303095,0.5752846598190703,271.56354291253166,44.4349374999965,26.04766503824569
19:08:03:04,-0.3373108,-1.332962,8.193222,0.3138733,-0.07626343,0.40957642,17.40036,-23.175048500000003,-270.299535,8.307794714033601,0.5216180624060782,271.8488514115272,44.434937499996494,26.047665081675795
19:08:03:05,-0.3947754,-1.4694366,8.336868,0.21800232,-0.15722656,0.44898987,17.100525,-23.249817,-270.59937,8.474577251243199,0.5232944735590401,272.13415991052284,44.434937499996494,26.0476651251059
19:08:03:06,-0.32295227,-1.4837952,8.585861,0.14131165,-0.18492126,0.49693298,17.7001955,-23.7747195,-270.375065,8.719114374497114,0.5487323951047455,271.9960962225199,44.434937499996494,26.047665168536007
19:08:03:07,-0.08113098,-1.3569031,8.758255,0.09550476,-0.19238281,0.53208923,18.299866,-24.299622,-270.15076,8.863114514871754,0.5738041943452022,271.8580325345169,44.43493749999649,26.047665211966113
19:08:03:08,0.10322571,-1.1222687,8.870773,0.06567383,-0.17745972,0.5469971,17.7749635,-24.375152999999997,-270.300295,8.942077845765697,0.5788012021219007,271.9791091555036,44.43493749999649,26.04766525539622
19:08:03:09,0.32588196,-1.0193176,8.9857025,0.053955078,-0.14657593,0.5352783,17.250061,-24.450684,-270.44983,9.049202000178218,0.5576006744510277,272.1001857764902,44.43493749999649,26.047665298826328
19:08:03:10,0.5748749,-0.9187622,9.11499,0.070999146,-0.07733154,0.4980011,17.750040666666667,-24.850464,-270.2997866666667,9.179196469784207,0.508946108554443,272.0210217543472,44.43493749999648,26.047665342256433
19:08:03:11,0.6898041,-0.89482117,9.25145,0.094436646,-0.03364563,0.47349548,18.25002033333333,-25.250244,-270.14974333333333,9.32018571301865,0.48399202277130215,271.94185773220426,44.43493749999648,26.04766538568654
19:08:03:12,0.7472534,-0.78707886,9.016815,0.22653198,0.09524536,0.3818817,18.75,-25.650024,-269.9997,9.081895921001045,0.45411677942919043,271.86269371006125,44.43493749999648,26.047665429116645
19:08:03:13,0.55332947,-0.6913147,8.389542,0.3096161,0.1293335,0.31477356,18.449402,-27.149963,-269.2505,8.436142749300215,0.4600779039212094,271.24404634076114,44.43493749999647,26.04766547254675
19:08:03:14,0.35461426,-0.65061188,7.9106981,0.33891297,0.10589599799999999,0.27056884999999997,18.449402,-27.149963,-269.2505,7.947305559617533,0.45004952767990236,271.24404634076114,44.43493749999647,26.04766551597686
19:08:03:15,0.15589905,-0.60990906,7.4318542,0.36820984,0.082458496,0.22636414,18.449402,-27.149963,-269.2505,7.458468369934851,0.4400211514385953,271.24404634076114,44.43493749999647,26.047665559406965
19:08:03:16,-0.04283142,-0.6625824,6.9506226,0.3426361,0.070739746,0.21144104,17.849731499999997,-26.9248965,-269.850165,6.982263565274498,0.4087920279110591,271.77777596250604,44.434937499996465,26.04766560283707
19:08:03:17,-0.10986328,-0.51174927,6.7016296,0.28085327,0.04197693,0.19972229,17.250061,-26.69983,-270.44983,6.722038124797721,0.34717375339268075,272.31150558425094,44.434937499996465,26.047665646267177
19:08:03:18,-0.11705017,-0.4064026,6.7207794,0.19030762,0.012161255,0.18907166,18.225097499999997,-26.174926999999997,-270.60013000000004,6.734073028936361,0.2685385986564967,272.47556446856834,44.434937499996465,26.047665689697283
19:08:03:19,-0.10507202,-0.3872528,6.955414,0.108291626,-0.008087158,0.1773529,19.200134,-25.650024,-270.75043,6.9669784535256545,0.20795799942452525,272.6396233528858,44.43493749999646,26.047665733127392
19:08:03:20,-0.07154846,-0.38006592,7.202011,0.05609131,-0.01234436,0.16137695,18.550109666666664,-26.150003666666667,-271.25041,7.212387380735648,0.17129255171380978,273.1410921598109,44.43493749999646,26.047665776557498
19:08:03:21,-0.07633972,-0.3585205,7.326523,0.03265381,-0.007019043,0.14752197,17.900085333333333,-26.64998333333333,-271.75039,7.335687014267916,0.15125564420818435,273.64256096673597,44.43493749999646,26.047665819987603
19:08:03:22,0.10322571,-0.27711487,7.6377563,-0.019546509,0.0036315918,0.111312866,17.250061,-27.149963,-272.25037,7.643478887036309,0.11307434992173451,274.1440297736611,44.43493749999645,26.04766586341771
19:08:03:23,0.11279297,-0.24838257,7.700012,-0.046173096,0.01109314,0.076156616,17.100525,-28.050232,-270.89996,7.704842695039609,0.08974877553402202,272.88464925409613,44.43493749999645,26.047665906847815
19:08:03:24,0.09843445,-0.16937256,7.9537964,-0.07281494,0.0057678223,0.03993225,17.100525,-27.95003266666667,-270.7997633333334,7.956208492597508,0.08324582783149241,272.7749258690158,44.43493749999645,26.047665950277924
19:08:03:25,0.07928467,-0.10473633,8.119003,-0.083465576,0.00044250488,0.025024414,17.100525,-27.849833333333333,-270.69956666666667,8.12006560759997,0.08713735986145091,272.66520248393556,44.434937499996444,26.04766599370803
19:08:03:26,0.2588501,-0.018539429,8.889923,-0.06428528,-0.021942139,-0.031433105,17.100525,-27.749634,-270.59937,8.893710026227899,0.074847142754515,272.55547909885524,44.434937499996444,26.047666037138136
19:08:03:27,0.27799988,0.09158325,9.33046,0.0049591064,-0.015548706,-0.0697937,16.799927,-27.825165,-271.42487,9.335049825071133,0.07167646443743551,273.3643368701281,44.434937499996444,26.04766608056824
19:08:03:28,0.21095276,0.19692993,9.383133,0.096572876,-0.008087158,-0.10493469,16.499329,-27.900696,-272.25037,9.387569832495013,0.142839111131456,274.173194641401,44.43493749999644,26.047666123998347
19:08:03:29,0.17744446,0.36213684,9.081467,0.16793823,-0.021942139,-0.14115906,18.75,-28.9505,-269.9997,9.090416519574825,0.22047808684654313,272.19392342655266,44.43493749999644,26.047666167428456
19:08:03:30,0.16067505,0.46748352,8.868378,0.18817139,-0.030456543,-0.15927124,17.099762,-28.9505,-270.899965,8.882144204191242,0.24840169266166556,272.9839445404698,44.43493749999644,26.047666210858562
19:08:03:31,0.005065918,0.8050537,8.466156,0.13598633,-0.04963684,-0.20826721,15.449524,-28.9505,-271.80023,8.504347978519274,0.2536362130951308,273.773965654387,44.43493749999643,26.047666254288668
19:08:03:32,-0.0907135,0.9965973,8.638535,0.019866943,-0.07733154,-0.23596191,15.674591,-29.399871500000003,-271.949765,8.696305081106258,0.24910416591013676,273.98348669643883,44.43493749999643,26.047666297718774
19:08:03:33,-0.08592224,0.98223877,9.239487,-0.10157776,-0.083724976,-0.25300598,15.899658,-29.849243,-272.0993,9.291947893514402,0.2852015758171378,274.19300773849073,44.43493749999643,26.04766634114888
19:08:03:34,0.09364319,0.8553467,9.986481,-0.19319153,-0.056030273,-0.27218628,16.424560500000002,-29.774475000000002,-272.32437000000004,10.023481919352939,0.338449006168483,274.43964543098105,44.43493749999642,26.047666384578985
19:08:03:35,0.3091278,0.809845,10.642487,-0.23579407,0.007888794,-0.30734253,16.949463,-29.699707,-272.54944,10.677730960551816,0.38745387759672795,274.6862831234713,44.43493749999642,26.047666428009094
19:08:03:36,0.41207886,0.7691498,11.229065,-0.22621155,0.08139038,-0.35954285,16.599528,-30.649821333333332,-272.5997933333333,11.262917081108426,0.4325125666336984,274.8228907752785,44.43493749999642,26.0476664714392
19:08:03:37,0.30433655,0.7404175,11.578613,-0.18252563,0.1250763,-0.41174316,16.249593,-31.599935666666667,-272.65014666666667,11.606253392621634,0.46743140270565103,274.95949842708563,44.434937499996416,26.047666514869306
19:08:03:38,0.24447632,0.6733856,11.913803,-0.10902405,0.12719727,-0.45220947,15.899658,-32.55005,-272.7005,11.935322314882708,0.4822435004554611,275.09610607889283,44.434937499996416,26.04766655829941
19:08:03:39,0.13673401,0.5752106,12.028732,-0.028076172,0.15170288,-0.48310852,16.6496275,-31.80008,-272.1756,12.04325358662131,0.5071448287531466,274.53432800637927,44.434937499996416,26.047666601729517
19:08:03:40,0.04576111,0.53211975,12.093369,0.0049591064,0.17832947,-0.49375916,17.399597,-31.05011,-271.6507,12.10515672255793,0.524999143514228,273.97254993386565,44.43493749999641,26.047666645159627
19:08:03:41,-0.34928894,0.5225525,11.928177,0.070999146,0.24012756,-0.48843384,16.8746945,-31.5750125,-272.1756,11.944725631934437,0.5488804422289325,274.52107323786174,44.43493749999641,26.047666688589732
19:08:03:42,-0.5168762,0.54649353,11.779724,0.07739258,0.26994324,-0.4586029,16.349792,-32.099915,-272.7005,11.80371609708715,0.5377504850292224,275.0695965418579,44.43493749999641,26.047666732019838
19:08:03:43,-0.510894765,0.581207265,11.972458,0.07260132,0.26036072,-0.40587615,16.4245605,-32.775116,-273.00033499999995,11.99747517369827,0.4880797181491221,275.4515616527598,44.4349374999964,26.047666775449944
19:08:03:44,-0.50491333,0.615921,12.165192,0.06781006,0.2507782,-0.3531494,16.499329,-33.450317,-273.30017,12.191234250309387,0.43840895126902185,275.8335267636616,44.4349374999964,26.04766681888005
19:08:03:45,-0.22000122,0.49142456,12.605728,0.1253357,0.22946167,-0.28816223,17.474365499999998,-33.450317,-272.77527,12.617221447091934,0.3891004580982292,275.3754554557544,44.4349374999964,26.04766686231016
19:08:03:46,0.18701172,0.3310089,12.780502,0.24996948,0.21348572,-0.22531128,18.449402,-33.450317,-272.25037,12.786155467821459,0.39852988152788144,274.9173841478472,44.434937499996394,26.047666905740265
19:08:03:47,0.81430054,0.38368225,12.586578,0.4129486,0.16767883,-0.1795044,18.449402,-33.450317,-272.399905,12.618725894023267,0.480483679110424,275.0654700554893,44.434937499996394,26.04766694917037
19:08:03:48,1.12793732,0.41001892500000003,12.0909805,0.5013733,0.13146973,-0.16778564,18.449402,-33.450317,-272.54944,12.155760320867845,0.5448040903383276,275.21355596313145,44.434937499996394,26.047666992600476
19:08:03:49,1.4415741,0.4363556,11.595383,0.7133484,0.037719727,-0.16033936,17.9244995,-34.275054499999996,-272.32437000000004,11.692794747712421,0.7321184521323882,275.0592883576004,44.43493749999639,26.04766703603058
19:08:03:50,2.1430817,0.63746643,10.965698,0.74850464,-0.016601562,-0.20187378,17.399597,-35.099792,-272.0993,11.191322319076322,0.7754275149966358,274.9050207520694,44.43493749999639,26.04766707946069
19:08:03:51,2.74642185,0.767951965,10.500030500000001,0.65529632,-0.020866394,-0.34994506999999997,17.324829,-35.924530000000004,-272.69973500000003,10.904063372394193,0.763411372972489,275.6019369266618,44.43493749999639,26.047667122890797
19:08:03:52,3.349762,0.8984375,10.034363,0.562088,-0.025131226,-0.49801636,17.250061,-36.749268,-273.30017,10.616804425712063,0.7513952309483423,276.2988531012542,44.43493749999638,26.047667166320903
19:08:03:53,3.5245361,0.7906952,9.790146,0.3564911,0.0014953613,-0.7270508,17.9252625,-37.274934,-273.97537,10.435253342436026,0.8097474953744948,277.0808828723509,44.43493749999638,26.04766720975101
19:08:03:54,3.287506,0.378891,10.012817,0.10722351,0.023864746,-0.9656677,18.600464,-37.8006,-274.65057,10.545508919222723,0.9718953205061,277.8629126434476,44.43493749999638,26.047667253181114
19:08:03:55,2.7727509,-0.3585205,10.345612,-0.116485596,0.08885193,-1.158493,18.150329499999998,-37.6503,-273.22540000000004,10.716733278238992,1.1677198253815855,276.4041008106283,44.43493749999637,26.047667296611223
19:08:03:56,1.982666,-1.7160339,11.039917,-0.34977722,0.2635498,-1.3097534,17.700195,-37.5,-271.80023,11.347048258485296,1.3810346011315315,274.945288977809,44.43493749999637,26.04766734004133
19:08:03:57,1.6594543,-2.056015,11.236252,-0.3955841,0.33172607,-1.320404,18.25002,-38.100179,-272.10032,11.54271827870357,1.4177431674695014,275.3623581271154,44.43493749999637,26.047667383471435
19:08:03:58,1.293136575,-2.51210785,11.5187685,-0.39878082000000004,0.407363885,-1.2596816999999998,18.799845,-38.700358,-272.40040999999997,11.873398475250497,1.385698782456053,275.77942727642176,44.434937499996366,26.04766742690154
19:08:03:59,0.92681885,-2.9682007,11.801285,-0.40197754,0.4830017,-1.1989594,19.34967,-39.300537,-272.7005,12.204078671797426,1.3536543974426047,276.1964964257281,44.434937499996366,26.047667470331646
19:08:03:60,0.9244385,-3.0352325,11.92099,-0.35723877,0.46809387,-1.1488953,20.550537,-38.549805,-272.3999,12.336013353163919,1.291004190653454,275.8806219300957,44.434937499996366,26.047667513761755
19:08:03:61,1.2524414,-3.1214294,11.727066,-0.11009216,0.34664917,-0.9923096,20.7000735,-38.925171,-272.5502,12.199836389393685,1.0568653050447414,276.09312594350786,44.43493749999636,26.04766755719186
19:08:03:62,1.7695923,-3.0352325,11.224274,0.07525635,0.16874695,-0.91986084,20.84961,-39.300537,-272.7005,11.761310303888402,0.9382339880408994,276.3056299569201,44.43493749999636,26.047667600621967
19:08:03:63,2.3011017,-2.7431488,10.417435,0.28831482,-0.18492126,-0.937973,20.7000735,-40.0505065,-273.0751,11.015574717276866,0.9985562861254341,276.77256631544026,44.43493749999636,26.047667644052073
19:08:03:64,2.4902344,-2.35289,9.184418,0.30854797,-0.292511,-0.9699402,20.550537,-40.800476,-273.4497,9.802596223336314,1.0590318817146918,277.2395026739605,44.43493749999635,26.04766768748218
19:08:03:65,2.4950256,-2.1565704,8.727127,0.22227478,-0.5076904,-1.0849762,20.95031733333333,-41.200256333333336,-273.2996566666667,9.329453055187132,1.2183304045465864,277.1818120282423,44.43493749999635,26.047667730912284
19:08:03:66,2.04850765,-2.0991058000000002,8.679245,0.10136413550000001,-0.48532103,-1.14569855,21.350097666666667,-41.60003666666667,-273.1496133333333,9.17125226884404,1.2553381074363874,277.1241213825241,44.43493749999635,26.047667774342393
19:08:03:67,1.6019897,-2.0416412,8.631363,-0.019546509,-0.46295166,-1.2064209,21.749878,-41.999817,-272.99957,9.013051482500948,1.2923458103261884,277.0664307368059,44.434937499996344,26.0476678177725
19:08:03:68,0.98428345,-2.103897,9.031189,-0.1953125,-0.32873535,-1.2330627,22.200012,-42.75055,-272.25037,9.325104355999127,1.290990908227925,276.4791384955464,44.434937499996344,26.047667861202605
19:08:03:69,0.52459717,-2.0991058,9.349609,-0.32633972,-0.15509033,-1.2053528,22.27478,-42.4499515,-271.57516499999997,9.596699213961362,1.2583425589945798,275.7739818343369,44.434937499996344,26.04766790463271
19:08:03:70,0.20856475999999996,-1.9614409999999998,9.445381,-0.36149597,-0.06347656,-1.1755371,22.349548,-42.149353,-270.89996,9.655594440548676,1.231501556422924,275.0688251731274,44.43493749999634,26.047667948062816
19:08:03:71,-0.10746765,-1.8237762,9.541153,-0.35830688,0.15916443,-1.0434418,22.7996825,-43.0496215,-270.97473,9.714489667135991,1.1146694245469368,275.3204589336046,44.43493749999634,26.047667991492926
19:08:03:72,-0.318161,-1.5005493,9.296951,-0.28692627,0.19004822,-0.9241333,23.249817,-43.94989,-271.0495,9.422641483153887,0.9861376001908514,275.5720926940818,44.43493749999634,26.04766803492303
19:08:03:73,-0.08592224,-0.93551636,8.865982,-0.18040466,0.12080383,-0.8048248,21.900177,-44.024658,-272.100065,8.915616092872005,0.8335960444888306,276.51090948800305,44.43493749999633,26.047668078353137
19:08:03:74,0.012237549,-0.67456055,8.686417,-0.07600403,-0.030456543,-0.71533203,20.550537,-44.099426,-273.15063,8.712578377903457,0.7200028657801806,277.4497262819243,44.43493749999633,26.047668121783243
19:08:03:75,0.03617859,-0.49739075,8.46376,-0.027008057,-0.10821533,-0.6801758,21.750641,-43.274688,-273.0751,8.478439702336743,0.689259828871206,277.34078950878836,44.43493749999633,26.04766816521335
19:08:03:76,0.28996277,0.15863037,7.8293,0.05609131,-0.339386,-0.60562134,22.950745,-42.44995,-272.99957,7.836273380394051,0.6964957282833195,277.23185273565235,44.43493749999632,26.047668208643458
19:08:03:77,0.33067322,0.2807312,7.805359,0.05821228,-0.4693451,-0.5885773,21.975708,-43.575286500000004,-272.3999,7.817402631562456,0.7550475021560553,276.74135750479246,44.43493749999632,26.047668252073564
19:08:03:78,0.16786194,0.44831848,7.812546,0.033721924,-0.5396576,-0.58644104,21.000671,-44.700623,-271.80023,7.827198866294766,0.7976719794453753,276.25086227393257,44.43493749999632,26.04766829550367
19:08:03:79,0.13195801,0.44831848,7.7838135,-0.004638672,-0.5471039,-0.57258606,22.0504755,-44.92569,-271.725465,7.797830145540163,0.7919589577619898,276.29771182690916,44.434937499996316,26.047668338933775
19:08:03:80,0.14871216,0.4172058,7.762253,-0.05470276,-0.50875854,-0.555542,23.10028,-45.150757,-271.6507,7.77487926736451,0.75528442175021,276.34456137988576,44.434937499996316,26.04766838236388
19:08:03:81,0.09124756,0.46987915,7.6976166,-0.11116028,-0.44378662,-0.53956604,22.650146,-45.250448,-271.45029999999997,7.712484285456032,0.7074140820353977,276.12734127048526,44.434937499996316,26.04766842579399
19:08:03:82,0.08406067,0.53930664,7.676071,-0.1441803,-0.40223694,-0.53105164,22.200012,-45.350139,-271.2499,7.695452153397482,0.6816145238735332,275.9101211610848,44.43493749999631,26.047668469224096
19:08:03:83,0.14152527,0.82421875,7.711975,-0.25283813,-0.32980347,-0.5257263,21.749878,-45.44983,-271.0495,7.757185336868337,0.6701384866709476,275.6929010516843,44.43493749999631,26.0476685126542
19:08:03:84,0.1439209,0.8553467,7.812546,-0.33380127,-0.32659912,-0.54382324,22.050476,-45.599365,-269.85016,7.860547449432113,0.716822146283501,274.56262388070127,44.43493749999631,26.047668556084307
19:08:03:85,-0.06677246,0.7787323,8.154907,-0.41583252,-0.33085632,-0.569397,22.800445500000002,-44.8493955,-269.85016,8.19227628532673,0.7788424312930651,274.5023838209362,44.4349374999963,26.047668599514413
19:08:03:86,-0.18408203,0.6566162,8.509247,-0.53726196,-0.29464722,-0.5992279,23.550415,-44.099426,-269.85016,8.536528306921987,0.8570539504927214,274.4421437611711,44.4349374999963,26.047668642944522
19:08:03:87,-0.42590332,0.5776062,9.088654,-0.6128998,-0.25842285,-0.60987854,22.4998475,-44.5495605,-269.77539,9.11694324277504,0.9024302564712101,274.35555750600713,44.4349374999963,26.047668686374628
19:08:03:88,-0.83291626,0.35734558,9.811691,-0.6555176,-0.20622253,-0.5939026,21.44928,-44.999695,-269.70062,9.853462621799451,0.9082683271347299,274.26897125084315,44.434937499996295,26.047668729804734
19:08:03:89,-1.04599,0.041305542,10.558685,-0.65231323,-0.13697815,-0.5342407,21.074676500000002,-44.850159000000005,-269.70062,10.610449102517995,0.8542181742078223,274.21572353489796,44.434937499996295,26.04766877323484
19:08:03:90,-1.1657104,-0.09994507,11.130905,-0.5990448,-0.0741272,-0.44369507,20.700073,-44.700623,-269.70062,11.192225688964214,0.7491427296111102,274.16247581895277,44.434937499996295,26.047668816664945
19:08:03:91,-1.2638702,-0.11192322,11.482849,-0.5575104,-0.05921936,-0.39788818,21.074676500000002,-44.475556499999996,-270.225525,11.552736292602901,0.6874880235252698,274.6711837839328,44.43493749999629,26.047668860095055
19:08:03:92,-1.2614746,-0.04008484,11.509186,-0.39344788,-0.08798218,-0.23916626,21.44928,-44.25049,-270.75043,11.57818152144105,0.4687671044307977,275.17989174891284,44.43493749999629,26.04766890352516
19:08:03:93,-1.2064056,0.08680725,11.389481,-0.30397034,-0.15934753,-0.13690186,22.4998475,-43.949891,-270.6749,11.453524672332309,0.3695019921303214,275.1434825276178,44.43493749999629,26.047668946955266
19:08:03:94,-1.0819092,0.24481201,11.322433,-0.24111938,-0.25416565,-0.043151855,23.550415,-43.649292,-270.59937,11.376640518042832,0.35298840723378994,275.1070733063227,44.43493749999628,26.04766899038537
19:08:03:95,-0.93107605,0.30706787,11.564255,-0.20063782,-0.3436432,0.031417847,23.175049,-44.024658,-270.974735,11.605739398792949,0.399165710990696,275.5046733339723,44.43493749999628,26.047669033815477
19:08:03:96,-0.71798706,0.24481201,11.849167,-0.18359375,-0.36921692,0.06123352,22.799683,-44.400024,-271.3501,11.873423976783474,0.41686609723619805,275.9022733616218,44.43493749999628,26.047669077245583
19:08:03:97,-0.6006775,-0.06642151,12.062241,-0.1356659,-0.34257507,0.118759155,22.2747805,-44.924927,-271.800235,12.077370707984329,0.38712614469269435,276.38795277860754,44.43493749999627,26.047669120675693
19:08:03:98,-0.25830078,-0.348938,12.136459,-0.07493591,-0.23072815,0.17948914,21.749878,-45.44983,-272.25037,12.144221427472147,0.3017734600455948,276.8736321955933,44.43493749999627,26.0476691641058
19:08:03:99,0.07688904,-0.50935364,11.94014,0.055023193,-0.0027618408,0.2711029,21.299743999999997,-44.774628,-270.825195,11.951246641026756,0.27664410696945957,275.3271338586613,44.43493749999627,26.047669207535904
19:08:04:00,0.4647522,-0.58117676,11.614532,0.14982605,0.11654663,0.3019867,20.84961,-44.099426,-269.40002,11.638346730218728,0.3566888408681289,273.78063552172927,44.434937499996266,26.04766925096601
19:08:04:01,0.6826172,-0.5500641,11.071045,0.1892395,0.15809631,0.31051636,21.074677,-44.249725,-269.40002,11.105700074640483,0.3965178954643986,273.82224610636274,44.434937499996266,26.047669294396115
19:08:04:02,0.81669617,-0.5452728,10.496445,0.25741577,0.21136475,0.32009888,21.299744,-44.400024,-269.40002,10.542280241889678,0.46195370889788273,273.86385669099616,44.434937499996266,26.047669337826225
19:08:04:03,1.0297699,-0.51174927,10.036758,0.24996948,0.16555786,0.3222351,21.749878000000002,-43.949889999999996,-270.22476,10.102416765945442,0.4401472544629354,274.6389549954749,44.43493749999626,26.04766938125633
19:08:04:04,1.3434143,-0.35612488,9.852402,0.20735168,0.06222534,0.3019867,22.200012,-43.499756,-271.0495,9.949945330563555,0.37156786609424125,275.4140532999536,44.43493749999626,26.047669424686436
19:08:04:05,1.7480316,-0.28190613,9.850006,0.15515137,-0.06561279,0.24659729,22.27478,-43.949889999999996,-270.44983,10.007882080678515,0.29864227641076724,274.90211883536665,44.43493749999626,26.047669468116542
19:08:04:06,2.0999908,-0.2866974,9.921829,0.1295929,-0.13485718,0.2050476,22.349548,-44.400024,-269.85016,10.145681222298107,0.2775343167857309,274.39018437077976,44.43493749999625,26.047669511546648
19:08:04:07,2.3417969,-0.48301697,10.067871,0.04862976,-0.34577942,0.034606934,22.349548,-44.400024,-268.94989,10.347914987416479,0.35089300468102,273.5049076877495,44.43493749999625,26.047669554976757
19:08:04:08,2.3585663,-0.75834656,10.30011,0.02305603,-0.39263916,-0.033569336,22.349548,-44.400024,-268.04962,10.5938751412625,0.3947454759770495,272.6196310047192,44.43493749999625,26.047669598406863
19:08:04:09,2.2795563,-1.1653595,10.623337,-0.018478394,-0.42140198,-0.16459656,22.200012,-44.7753905,-268.574525,10.927475861546386,0.45278373132939886,273.1850484481198,44.434937499996245,26.04766964183697
19:08:04:10,2.1861725,-1.5747681,10.834015,-0.04084778,-0.3766632,-0.27218628,22.050476,-45.150757,-269.09943,11.164010291501835,0.4665073186836481,273.75046589152043,44.434937499996245,26.047669685267074
19:08:04:11,2.1263275,-1.7447662,10.915421,-0.032333374,-0.30529785,-0.37019348,21.67511,-45.150757,-269.625095,11.256637745666318,0.4809318422847013,274.2376214303051,44.434937499996245,26.04766972869718
19:08:04:12,1.9467621,-2.237976,10.982468,0.009216309,-0.23498535,-0.45967102,21.299744,-45.150757,-270.15076,11.375984468238185,0.5163337115606983,274.7247769690899,44.43493749999624,26.04766977212729
19:08:04:13,1.8629608,-2.376831,10.903458,0.07418823,-0.16574097,-0.5342407,21.450043,-45.7504275,-269.475555,11.313944710076218,0.5642579978552044,274.1729642081061,44.43493749999624,26.047669815557395
19:08:04:14,1.764801,-2.534851,10.462921,0.14770508,-0.11567688,-0.59176636,21.600342,-46.350098,-268.80035,10.909294569954696,0.6207941333904424,273.6211514471224,44.43493749999624,26.0476698589875
19:08:04:15,1.7695923,-2.5300598,10.276169,0.19989014,-0.11567688,-0.6173401,21.600342,-46.45029733333334,-269.15028666666666,10.729972451798574,0.6591251836364348,273.9819089080224,44.43493749999623,26.047669902417606
19:08:04:16,2.0975952,-2.455841,9.668045,0.22865295,-0.1444397,-0.6365051,21.600342,-46.55049666666667,-269.50022333333334,10.193240640854558,0.6915806104900589,274.3426663689223,44.43493749999623,26.047669945847712
19:08:04:17,2.2005463,-2.4462585,9.483688,0.22972107,-0.16680908,-0.66952515,21.600342,-46.650696,-269.85016,10.038272896699409,0.727228276165685,274.7034238298223,44.43493749999623,26.04766998927782
19:08:04:18,2.2675781,-2.3696442,8.968933,0.19670105,-0.19343567,-0.7185364,23.550415,-45.599365,-268.80035,9.549810638577199,0.7696773477402147,273.65590126141615,44.434937499996224,26.047670032707927
19:08:04:19,2.226883,-2.3457031,8.899506,0.10508728,-0.19664001,-0.8026886,22.425079500000002,-45.749663999999996,-268.424985,9.469030466371656,0.8330783987840271,273.2199266410395,44.434937499996224,26.047670076138033
19:08:04:20,2.0592804,-2.3624725,8.887543,0.03691101,-0.15615845,-0.8516846,21.299744,-45.899963,-268.04962,9.423923421586649,0.8666686460480629,272.78395202066287,44.434937499996224,26.04767011956814
19:08:04:21,1.8270416,-2.4151459,8.832474,0.006011963,-0.1210022,-0.86872864,22.799683,-46.2753295,-268.424985,9.33721627076793,0.8771357512153993,273.34122502867194,44.43493749999622,26.047670162998244
19:08:04:22,1.551712,-2.281067,8.870773,-0.07067871,-0.02406311,-0.90708923,24.299622,-46.650696,-268.80035,9.289870311633097,0.9101567911586053,273.8984980366811,44.43493749999622,26.04767020642835
19:08:04:23,1.211731,-2.1972656,8.892319,-0.090927124,-0.00062561035,-0.91241455,23.699951,-47.2503665,-268.424985,9.239567377916856,0.9169342639027751,273.58182910003643,44.43493749999622,26.04767024985846
19:08:04:24,0.87893677,-2.0871277,8.875565,-0.13246155,0.05583191,-0.88897705,23.10028,-47.850037,-268.04962,9.159928272153136,0.9005239918121856,273.2651601633918,44.43493749999621,26.047670293288565
19:08:04:25,0.7185364,-1.9243317,8.758255,-0.14524841,0.06755066,-0.8495636,22.9499815,-47.2503665,-267.44995,8.995908942112234,0.8645336909102639,272.5601204462807,44.43493749999621,26.04767033671867
19:08:04:26,0.6036072,-1.6035004,8.796555,-0.16015625,0.014282227,-0.81973267,22.799683,-46.650696,-266.85028,8.96186002193278,0.8353536117641863,271.8550807291696,44.43493749999621,26.047670380148777
19:08:04:27,0.5174103,-1.3975983,8.806137,-0.16548157,-0.07307434,-0.79522705,22.5746155,-46.50039700000001,-267.07534,8.931351705619814,0.8155428071093529,272.0316711988232,44.4349374999962,26.047670423578882
