,ax,ay,az,gx,gy,gz,mx,my,mz,a_total,g_total,m_total,lat,long
15:14:43:80,0.7352905,-0.32022095,9.94577,-0.04298401,0.04837036,0.019699097,50.475312,-52.349854,-260.47439499999996,9.978052639122984,0.06764149070522552,270.43522168374204,44.4349375,26.0476015
15:14:43:81,0.74487305,-0.35372925,9.806915,-0.008895874,0.007888794,0.031417847,50.70038,-52.349854,-260.69946,9.841521328541988,0.03359242109633839,270.6940047179791,44.43493749999999,26.047601583964873
15:14:43:82,0.8190918,-0.35133362,9.562698,0.0038909912,-0.028320312,0.04206848,51.450348500000004,-51.5998845,-260.09979,9.604141800732304,0.050861939540350024,270.1161561279642,44.43493749999999,26.047601667929744
15:14:43:83,0.8885193,-0.24121094,9.533966,-0.019546509,-0.06454468,0.0473938,52.200317,-50.849915,-259.50012,9.578317020917828,0.08242726496026348,269.53830753794927,44.43493749999998,26.047601751894618
15:14:43:84,1.0561066,-0.23881531,9.766205,-0.062164307,-0.09011841,0.051651,51.1505125,-51.6746525,-259.79996,9.82604467753322,0.121051867753944,269.78597943573493,44.434937499999975,26.04760183585949
15:14:43:85,1.2452545,-0.21487427,10.268997,-0.07493591,-0.13378906,0.038864136,50.100708,-52.49939,-260.0998,10.346454905313573,0.15819394504922807,270.0336513335206,44.434937499999975,26.047601919824363
15:14:43:86,1.42482,-0.29388428,10.522781,-0.04724121,-0.107162476,0.022888184,50.650532999999996,-52.2995,-260.14964333333336,10.622871550404444,0.11932894515385835,270.1466547565389,44.43493749999997,26.047602003789233
15:14:43:87,1.4822845,-0.3776703,10.549118,-0.007827759,-0.034713745,0.0015869141,51.200358,-52.09961,-260.19948666666664,10.659441485010664,0.03562072710161718,270.25965817955716,44.43493749999996,26.047602087754107
15:14:43:88,1.6091766,-0.46147156,10.45813,0.016677856,0.05369568,-0.015457153,51.750183,-51.89972,-260.24933,10.591264722759808,0.05831209574594747,270.3726616025755,44.43493749999996,26.047602171718978
15:14:43:89,1.7911377,-0.43273926,10.3815155,0.011352539,0.089920044,-0.022918701,51.2252815,-51.750183500000006,-260.24933,10.543780233115962,0.09348669055130714,270.24453035652755,44.434937499999954,26.047602255683852
15:14:43:90,2.0520935,-0.36810303,10.364761,-0.00036621094,0.09843445,-0.025039673,50.70038,-51.600647,-260.24933,10.572362941204696,0.10156997726297869,270.1163991104796,44.434937499999954,26.047602339648723
15:14:43:91,2.2651825,-0.30584717,10.355179,-0.03552246,0.105895996,-0.04421997,50.849915,-53.250122,-259.64966,10.604448423739175,0.1201299832684768,269.8874492944007,44.43493749999995,26.047602423613597
15:14:43:92,2.3585663,-0.27711487,10.431793,-0.05256653,0.12080383,-0.07191467,51.049805,-52.20031733333333,-260.19999333333334,10.698688369960115,0.15009505381630234,270.25471745071206,44.43493749999994,26.047602507578468
15:14:43:93,2.408844,-0.3369751,10.47728,-0.053634644,0.13891602,-0.113464355,51.249695,-51.150512666666664,-260.75032666666664,10.755904324265627,0.18721243416294006,270.6219856070235,44.43493749999994,26.047602591543342
15:14:43:94,2.329834,-0.5356903,10.577835,-0.04084778,0.1804657,-0.15394592,51.449585,-50.100708,-261.30066,10.844615431277179,0.2406984758823055,270.98925376333483,44.43493749999993,26.047602675508212
15:14:43:95,2.1215363,-0.7799072,10.585022,-0.018478394,0.23799133,-0.18164062,51.3748175,-50.325012,-260.32563,10.823671385131458,0.2999577287451893,270.07700146915784,44.434937499999926,26.047602759473087
15:14:43:96,1.8940887,-0.933136,10.374329,0.015609741,0.31788635,-0.18910217,51.30005,-50.549316,-259.3506,10.58702115791806,0.37020943562950753,269.16474917498084,44.434937499999926,26.047602843437957
15:14:43:97,1.5636902,-1.0049591,10.144485,0.04862976,0.39457703,-0.1720581,51.824951999999996,-50.174713,-259.8755,10.313372181273875,0.4331972713867072,269.7016982332901,44.43493749999992,26.04760292740283
15:14:43:98,1.3506012,-1.0504456,9.857193,0.06460571,0.47554016,-0.14541626,52.349854,-49.80011,-260.4004,10.004589616733403,0.5014561099536203,270.2386472915993,44.43493749999991,26.047603011367702
15:14:43:99,1.2620087,-1.1462097,9.754242,0.06674194,0.5522461,-0.15074158,52.574921,-50.39978,-260.775,9.902105817946694,0.5763273943350862,270.75476906223815,44.43493749999991,26.047603095332576
15:14:44:00,1.1351166,-1.1150818,9.589035,0.052886963,0.6097717,-0.17843628,52.799988,-50.99945,-261.1496,9.720158915753991,0.6375406363491599,271.270890832877,44.434937499999904,26.047603179297447
15:14:44:01,0.92204285,-0.96424866,9.500458,0.03477478,0.6065674,-0.21253967,52.574921,-50.99945,-260.2501,9.59367712117267,0.6436663789499318,270.36126405793334,44.4349374999999,26.04760326326232
15:14:44:02,0.7041626,-0.8110199,9.507629,0.018798828,0.5863342,-0.24662781,52.349854,-50.99945,-259.3506,9.5681036494739,0.6363697562653412,269.4516372829896,44.4349374999999,26.04760334722719
15:14:44:03,0.4575653,-0.7607422,9.476501,0.016677856,0.55010986,-0.26579285,53.025055,-51.0749815,-260.02503,9.517991694765549,0.6111831542680957,270.24731224944645,44.43493749999989,26.047603431192066
15:14:44:04,0.3139038,-0.69610596,9.464539,0.029449463,0.4638214,-0.2732544,53.700256,-51.150513,-260.69946,9.495293443897506,0.5391340548400818,271.0429872159033,44.43493749999988,26.047603515156936
15:14:44:05,0.09843445,-0.641037,9.471725,0.0635376,0.35943604,-0.27111816,54.1503905,-51.450348,-260.77499,9.493902898805148,0.454682691716352,271.26232438030945,44.43493749999988,26.04760359912181
15:14:44:06,-0.016494751,-0.63864136,9.325668,0.10189819,0.25717163,-0.2775116,54.600525,-51.750183,-260.85052,9.347524726350672,0.39183309780656994,271.4816615447156,44.434937499999876,26.04760368308668
15:14:44:07,-0.20802307,-0.56921387,9.103012,0.12426758,0.15383911,-0.28816223,55.2001955,-51.899719000000005,-260.25009,9.123163130164702,0.3494944548962421,271.05592225312034,44.434937499999876,26.047603767051555
15:14:44:08,-0.3660431,-0.45907593,8.863586,0.11894226,0.049438477,-0.2966919,55.799866,-52.049255,-259.64966,8.883011597423419,0.3234462980891838,270.6301829615251,44.43493749999987,26.047603851016426
15:14:44:09,-0.49772644,-0.344162,8.648117,0.08378601,-0.04750061,-0.29029846,54.750061,-50.6996155,-259.79996,8.669262179505708,0.3058587898041575,270.30886476284184,44.43493749999986,26.0476039349813
15:14:44:10,-0.5456085,-0.26036072,8.478134,0.024124146,-0.13697815,-0.27537537,53.700256,-49.349976,-259.95026,8.499660726272973,0.3085070216385499,269.9875465641586,44.43493749999986,26.04760401894617
15:14:44:11,-0.55996704,-0.19093323,8.387146,-0.04724121,-0.22114563,-0.25621033,54.524993,-49.800110000000004,-260.02503,8.407986477719893,0.3417321389466754,270.30876283716555,44.434937499999855,26.047604102911045
15:14:44:12,-0.5719452,-0.0448761,8.865982,-0.12606812,-0.3127594,-0.24342346,55.34973,-50.250244,-260.0998,8.884524297928294,0.4158925270392172,270.62997911017254,44.43493749999985,26.047604186875915
15:14:44:13,-0.2678833,0.0748291,9.72551,-0.15164185,-0.39797974,-0.24555969,54.8995965,-50.175476,-260.924535,9.729486400459466,0.491612332508844,271.318211307939,44.43493749999985,26.04760427084079
15:14:44:14,-0.21281433,0.10116577,10.211533,-0.102645874,-0.38305664,-0.26686096,54.449463,-50.100708,-261.74927,10.214251351037042,0.4779993063482782,272.0064435057055,44.43493749999984,26.04760435480566
15:14:44:15,-0.27267456,0.08201599,10.26181,-0.014221191,-0.3127594,-0.28816223,55.0498965,-50.250243999999995,-260.84976500000005,10.265759714428684,0.4255092893937703,271.29109512591685,44.43493749999983,26.047604438770534
15:14:44:16,-0.42111206,0.13468933,10.091812,0.0635376,-0.292511,-0.3062744,55.65033,-50.39978,-259.95026,10.101492267285922,0.4282566051214155,270.5757467461282,44.43493749999983,26.047604522735405
15:14:44:17,-0.6365814,0.13708496,9.897888,0.08804321,-0.2935791,-0.31480408,55.1254275,-50.699615,-260.17533000000003,9.919285005766705,0.4393653417926367,270.74130591607695,44.434937499999826,26.04760460670028
15:14:44:18,-0.79460144,0.11552429,9.703964,0.11148071,-0.2701416,-0.3243866,54.600525,-50.99945,-260.4004,9.737127637210373,0.4366132144269389,270.9068650860257,44.43493749999982,26.04760469066515
15:14:44:19,-0.9574127,0.08201599,9.493271,0.09336853,-0.18917847,-0.31373596,55.2001955,-50.39978,-260.62546,9.541779707170878,0.3780693435112445,271.13381965358644,44.43493749999982,26.047604774630024
15:14:44:20,-1.0340271,0.12510681,9.294556,0.045440674,-0.093307495,-0.27964783,55.799866,-49.80011,-260.85052,9.352734091942247,0.2982851861900926,271.36077422114727,44.43493749999981,26.047604858594894
15:14:44:21,-1.0627594,0.21369934,9.126953,-0.024871826,-0.053894043,-0.23809814,54.750061,-50.099945,-260.92529,9.191104178193923,0.2453852071150984,271.2761896253616,44.434937499999805,26.04760494255977
15:14:44:22,-1.0052948,0.3501587,9.016815,-0.106903076,-0.052825928,-0.21040344,53.700256,-50.39978,-261.00006,9.079437289519527,0.24184386262867322,271.19160502957595,44.434937499999805,26.04760502652464
15:14:44:23,-0.9454346,0.3669281,8.9857025,-0.18786621,-0.05496216,-0.20826721,53.849793000000005,-49.874877999999995,-260.47516,9.042750258187661,0.2858142450138093,270.6193980876702,44.4349374999998,26.047605110489513
15:14:44:24,-0.8353119,0.46029663,9.136536,-0.27095032,-0.067733765,-0.22212219,53.99933,-49.349976,-259.95026,9.186180329014174,0.35684759508727776,270.04719114576454,44.4349374999998,26.047605194454384
15:14:44:25,-0.8089752,0.43875122,9.304123,-0.34231567,-0.06561279,-0.23596191,54.4494635,-50.250244499999994,-260.099795,9.349526635418263,0.4209074472018535,270.44890201186956,44.43493749999979,26.047605278419258
15:14:44:26,-0.8137512,0.38368225,9.457352,-0.39239502,-0.04536438,-0.24128723,54.899597,-51.150513,-260.24933,9.500047891267206,0.4628728832570101,270.85061287797464,44.43493749999978,26.04760536238413
15:14:44:27,-0.77305603,0.24481201,9.888306,-0.4136963,-0.04750061,-0.24128723,55.049896000000004,-50.0251765,-261.14959999999996,9.921499085087676,0.48126963746442075,271.53958769473996,44.43493749999978,26.047605446349003
15:14:44:28,-0.5743408,0.19213867,10.4605255,-0.38386536,-0.07307434,-0.24768066,55.200195,-48.89984,-262.04987,10.478042677867094,0.46264260840566857,272.2285625115053,44.434937499999776,26.047605530313874
15:14:44:29,-0.49053955,0.14904785,10.819656,-0.29438782,-0.072006226,-0.2583313,55.4252625,-48.3749385,-261.374665,10.83179580079129,0.3982262493944937,271.5310395561029,44.43493749999977,26.047605614278748
15:14:44:30,-0.5456085,0.08680725,10.822052,-0.16548157,-0.06135559,-0.25727844,55.65033,-47.850037,-260.69946,10.83614477683963,0.3119949584893105,270.8335166007004,44.43493749999977,26.04760569824362
15:14:44:31,-0.591095,0.05567932,10.79332,-0.051498413,-0.08584595,-0.2540741,54.9751285,-47.924805,-260.92453,10.809636909170477,0.2730847157270635,270.9264947222654,44.43493749999976,26.047605782208493
15:14:44:32,-0.6006775,-0.06404114,10.826843,0.03691101,-0.116744995,-0.250885,54.299927,-47.999573,-261.1496,10.843682219304831,0.27916858659557336,271.01947284383033,44.434937499999755,26.047605866173363
15:14:44:33,-0.54081726,-0.14065552,10.704727,0.09017944,-0.11354065,-0.24235535,54.9751285,-48.075103999999996,-260.54993,10.719302562599369,0.2824179992046516,270.592655914055,44.434937499999755,26.047605950138237
15:14:44:34,-0.457016,-0.1933136,10.563477,0.12213135,-0.083724976,-0.22424316,55.65033,-48.150635,-259.95026,10.575125535979701,0.26872092040964857,270.1658389842797,44.43493749999975,26.047606034103108
15:14:44:35,-0.31576538,-0.21008301,10.417435,0.1253357,-0.050689697,-0.20507812,55.500029999999995,-48.450469999999996,-260.40039,10.424336651582305,0.2456328935203431,270.62182408500604,44.43493749999974,26.047606118067982
15:14:44:36,-0.06677246,-0.19570923,10.271378,0.106155396,-0.011276245,-0.19975281,55.34973,-48.750305,-260.85052,10.27345933378848,0.2264890878256896,271.0778091857324,44.43493749999974,26.047606202032853
15:14:44:37,0.17025757,-0.13586426,10.206741,0.06248474,0.021743774,-0.22212219,55.34973,-48.899840999999995,-260.85052,10.209065019793371,0.23176583383024077,271.10478136448546,44.434937499999734,26.047606285997727
15:14:44:38,0.19419861,-0.15261841,10.216324,0.02305603,0.040908813,-0.25621033,55.34973,-49.049377,-260.85052,10.219309250246459,0.26047810790762965,271.1317535432385,44.43493749999973,26.047606369962597
15:14:44:39,0.23490906,-0.21008301,10.324051,-0.014221191,0.039855957,-0.29136658,55.500029999999995,-48.9746085,-260.92529,10.328859868744553,0.29442354444361396,271.22094016876827,44.43493749999973,26.04760645392747
15:14:44:40,0.2636261,-0.25317383,10.472504,-0.030197144,0.024932861,-0.33078003,55.65033,-48.89984,-261.00006,10.47888046209203,0.3330899928100557,271.31012679429807,44.43493749999972,26.047606537892342
15:14:44:41,0.33306885,-0.344162,10.592209,-0.025939941,0.04624939,-0.36166382,55.725098,-48.9746085,-261.299895,10.60303135149403,0.3655305805421046,271.627381504346,44.43493749999972,26.047606621857216
15:14:44:42,0.30673218,-0.44232178,10.51799,-0.009963989,0.09098816,-0.4032135,55.799866,-49.049377,-261.59973,10.531754214156818,0.4134721912284159,271.9446362143938,44.43493749999971,26.047606705822087
15:14:44:43,0.32348633,-0.5261078,10.429398,0.0038909912,0.14530945,-0.43943787,55.0498965,-48.524474999999995,-261.37466500000005,10.447668422443437,0.46285593618528637,271.4820545291121,44.434937499999705,26.04760678978696
15:14:44:44,0.27320862,-0.6051178,10.2426605,0.011352539,0.21136475,-0.4586029,54.299927,-47.999573,-261.1496,10.264156303378247,0.5050946025970967,271.01947284383033,44.434937499999705,26.047606873751832
15:14:44:45,0.21813965,-0.6003418,9.897888,-0.0035705566,0.28912354,-0.47032166,55.4252635,-47.8500365,-260.6247,9.918476800611744,0.5520938635066694,270.7181071138309,44.4349374999997,26.047606957716706
15:14:44:46,0.18701172,-0.5285034,9.727905,-0.032333374,0.328537,-0.473526,56.5506,-47.7005,-260.0998,9.744045613412014,0.5772424794826034,270.4167413838315,44.43493749999969,26.047607041681577
15:14:44:47,0.2588501,-0.4638672,9.612976,-0.04937744,0.3050995,-0.46073914,56.325532,-46.725463500000004,-261.37467000000004,9.627641649442602,0.5548012181035142,271.42983054122624,44.43493749999969,26.04760712564645
15:14:44:48,0.2995453,-0.43992615,9.6345215,-0.06642151,0.24864197,-0.44262695,56.100464,-45.750427,-262.64954,9.649210689904546,0.5120090459185888,272.4429196986209,44.434937499999684,26.04760720961132
15:14:44:49,0.39291382,-0.427948,9.596222,-0.07493591,0.2039032,-0.40428162,56.625367,-46.424865499999996,-261.9751,9.613792042369909,0.4589504699285017,272.01775279833845,44.43493749999968,26.047607293576196
15:14:44:50,0.7927551,-0.43034363,9.459747,-0.08879089,0.20603943,-0.3787079,57.15027,-47.099304,-261.30066,9.50265592308101,0.4401769444031877,271.592585898056,44.43493749999968,26.047607377541066
15:14:44:51,0.8885193,-0.4638672,9.404678,-0.1441803,0.27207947,-0.4032135,58.350373000000005,-47.699737,-260.85053,9.457938866866941,0.5073424124650144,271.52353223246683,44.43493749999967,26.04760746150594
15:14:44:52,0.8981018,-0.36091614,9.502838,-0.21342468,0.37327576,-0.46606445,59.550476,-48.30017,-260.4004,9.5520038399029,0.6341143103498631,271.4544785668777,44.43493749999966,26.04760754547081
15:14:44:53,0.87654114,-0.35372925,9.507629,-0.25071716,0.408432,-0.5246582,59.550476,-48.30017,-260.4004,9.55449935653664,0.7105927242589144,271.4544785668777,44.43493749999966,26.047607629435685
15:14:44:54,0.87176514,-0.48301697,9.411865,-0.25283813,0.34877014,-0.56407166,59.550476,-48.30017,-260.4004,9.464485333648746,0.7097496517453686,271.4544785668777,44.434937499999656,26.047607713400556
15:14:44:55,0.6969757,-0.65301514,9.466934,-0.2464447,0.21136475,-0.5576782,58.350373000000005,-47.475433,-259.95025999999996,9.514990449801603,0.645302272160801,270.61863363308936,44.434937499999656,26.04760779736543
15:14:44:56,0.70895386,-0.641037,9.952957,-0.27946472,0.22627258,-0.5832367,57.15027,-46.650696,-259.50012,9.998744773961725,0.6851750567639082,269.782788699301,44.43493749999965,26.047607881330304
15:14:44:57,0.6131897,-0.7415924,10.386307,-0.2379303,0.46488953,-0.59602356,56.625367,-46.575165,-259.95025999999996,10.43078779355485,0.7924501163081399,270.0929534598446,44.43493749999964,26.047607965295175
15:14:44:58,0.54374695,-0.76553345,10.491653,-0.20384216,0.5053711,-0.5768585,56.100464,-46.499634,-260.4004,10.533588414263782,0.7935472915528888,270.4031182203882,44.43493749999964,26.04760804926005
15:14:44:59,0.3282776,-0.74398804,10.628113,-0.1399231,0.49897766,-0.5331726,57.524872,-46.575165,-260.324865,10.659177750985009,0.743525521070693,270.6462146112988,44.434937499999634,26.04760813322492
15:14:44:60,0.28518677,-0.68891907,10.484467,-0.05895996,0.44465637,-0.48310852,58.94928,-46.650696,-260.24933,10.510946163542162,0.6592339541933265,270.88931100220935,44.43493749999963,26.047608217189794
15:14:44:61,0.49108887,-0.63864136,10.125336,0.02519226,0.361557,-0.43411255,58.799744000000004,-46.650696,-259.874725,10.157335289229973,0.5655190715443734,270.49691077266806,44.43493749999963,26.047608301154664
15:14:44:62,0.56051636,-0.55963135,9.933807,0.068862915,0.2273407,-0.41812134,58.650208,-46.650696,-259.50012,9.965334281948572,0.4808860051011911,270.10451054312676,44.43493749999962,26.04760838511954
15:14:44:63,0.7424774,-0.41119385,9.572281,0.07418823,0.049438477,-0.44369507,59.400177,-46.650696,-259.874725,9.609834369787524,0.4525631134117289,270.6288399631636,44.43493749999961,26.04760846908441
15:14:44:64,0.8334503,-0.35133362,9.392715,0.049697876,-0.027267456,-0.4809723,60.150146,-46.650696,-260.24933,9.436162874089097,0.4843012971311489,271.1531693832005,44.43493749999961,26.047608553049283
15:14:44:65,0.7688141,-0.32260132,9.340042,-0.00036621094,-0.0741272,-0.5182648,59.850311000000005,-46.050263,-259.799965,9.377181415211533,0.5235392810566677,270.55313817332114,44.434937499999606,26.047608637014154
15:14:44:66,0.7544403,-0.33218384,9.359192,-0.060028076,-0.08584595,-0.53956604,59.550476,-45.44983,-259.3506,9.395424480175722,0.5496402537669033,269.9531069634418,44.4349374999996,26.047608720979028
15:14:44:67,0.7520447,-0.29388428,9.524399,-0.12713623,-0.08905029,-0.55981445,60.150146500000005,-45.825195,-260.10056,9.558562418691956,0.580935274842645,270.86991773667404,44.4349374999996,26.0476088049439
15:14:44:68,0.8813324,-0.2723236,9.888306,-0.17826843,-0.10076904,-0.58218384,60.749817,-46.20056,-260.85052,9.931238718913301,0.6171483258620508,271.78672850990625,44.43493749999959,26.047608888908773
15:14:44:69,1.0345612,-0.3872528,10.206741,-0.17826843,-0.0975647,-0.6130676,60.600280999999995,-45.525360000000006,-261.07559000000003,10.266345184569545,0.645871803061966,271.8564698567268,44.434937499999585,26.047608972873643
15:14:44:70,0.95555115,-0.41838074,10.534744,-0.15589905,-0.050689697,-0.6322479,60.450745,-44.85016,-261.30066,10.586262399421491,0.6531549327895061,271.9262112035473,44.434937499999585,26.047609056838517
15:14:44:71,0.81669617,-0.506958,10.838806,-0.06854248,0.07180786,-0.67059326,60.450745,-45.600129,-261.30066,10.881347092777284,0.6779009962227209,272.0519176622258,44.43493749999958,26.047609140803388
15:14:44:72,0.5772705,-0.6362457,10.699951,0.05821228,0.16874695,-0.6876373,60.450745,-46.350098,-261.30066,10.734384063528738,0.7104289260921116,272.1776241209042,44.43493749999958,26.047609224768262
15:14:44:73,0.33306885,-0.6697693,10.216324,0.18391418,0.22520447,-0.6684723,60.300445499999995,-44.999695,-261.15036,10.243671307057777,0.7289696116988302,271.7762581230173,44.43493749999957,26.047609308733133
15:14:44:74,0.22293091,-0.66737366,9.9266205,0.26594543,0.24864197,-0.6269226,60.150146,-43.649292,-261.00006,9.951526533337258,0.7249701699891699,271.37489212513043,44.43493749999956,26.047609392698007
15:14:44:75,0.04096985,-0.55963135,9.031189,0.27978516,0.19432068,-0.53956604,60.9001155,-44.024658,-260.84976,9.048604341567424,0.6381001284697956,271.4595930184112,44.43493749999956,26.047609476662878
15:14:44:76,-0.16493225,-0.3154297,8.530792,0.25636292,0.16555786,-0.5097351,61.650085,-44.400024,-260.69946,8.538214724987663,0.5941053979982979,271.544293911692,44.434937499999556,26.047609560627752
15:14:44:77,-0.36364746,-0.04248047,8.200394,0.1146698,0.06541443,-0.41918945,61.5753175,-44.6998595,-259.87473,8.208562957103506,0.4394860699448475,270.78528770554817,44.43493749999955,26.047609644592622
15:14:44:78,-0.5503998,0.19692993,8.111816,-0.008895874,-0.018737793,-0.36166382,61.50055,-44.999695,-259.05,8.132851907850396,0.36225814022286257,270.0262814994043,44.43493749999955,26.047609728557497
15:14:44:79,-0.6509552,0.29508972,8.277008,-0.12606812,-0.12632751,-0.31585693,61.875153,-45.2247625,-260.0998,8.307808498474236,0.36279113948959585,271.1562940381144,44.43493749999954,26.047609812522367
15:14:44:80,-0.5743408,0.3597412,8.722336,-0.19958496,-0.22647095,-0.2828369,62.249756,-45.44983,-261.1496,8.748624256557031,0.413666483357927,272.2863065768245,44.434937499999535,26.04760989648724
15:14:44:81,-0.41152954,0.39804077,9.270615,-0.21128845,-0.30848694,-0.2593994,62.07478833333333,-45.349885,-261.0745766666667,9.288277315794344,0.45507697148320536,272.1579960902407,44.434937499999535,26.047609980452112
15:14:44:82,-0.3373108,0.48184204,9.565094,-0.1910553,-0.33831787,-0.25300598,61.89982066666666,-45.24994,-260.9995533333333,9.583160937610513,0.46365195430968187,272.02968560365696,44.43493749999953,26.047610064416986
15:14:44:83,-0.32115174,0.50578308,9.51242075,-0.11840515400000001,-0.30145874,-0.22680053600000002,61.724852999999996,-45.149995000000004,-260.92453,9.531416329986918,0.4231720862232167,271.90137511707326,44.43493749999952,26.047610148381857
15:14:44:84,-0.30499268,0.52972412,9.459747499999999,-0.045755008000000014,-0.26459961,-0.20059509200000003,61.549885333333336,-45.05005,-260.8495066666667,9.479671722363324,0.3826922181367515,271.7730646304895,44.43493749999952,26.04761023234673
15:14:44:85,-0.28883362,0.55366516,9.407074249999999,0.026895137999999985,-0.22774048000000002,-0.174389648,61.37491766666667,-44.950105,-260.7744833333333,9.427927114739731,0.3422123500502864,271.64475414390574,44.43493749999951,26.0476103163116
15:14:44:86,-0.27267456,0.5776062,9.354401,0.09954528399999998,-0.19088135,-0.148184204,61.19995,-44.85016,-260.69946,9.376182507116136,0.3017324819638212,271.516443657322,44.434937499999506,26.047610400276476
15:14:44:87,-0.59588623,0.8697052,8.703186,0.17219543,-0.15402222,-0.12197876,61.19995,-44.474793000000005,-260.32486,8.766807519536782,0.26125261387735604,271.09514484636486,44.434937499999506,26.047610484241346
15:14:44:88,-0.75390625,0.9894104,8.485306,0.1530304,-0.1913147,-0.09109497,61.19995,-44.099426,-259.95026,8.57599705498161,0.2613769525408675,270.6738460354077,44.4349374999995,26.04761056820622
15:14:44:89,-0.7634735,1.0516663,8.267441,0.13171387,-0.22114563,-0.07084656,61.35025,-44.4000245,-260.17533000000003,8.368958984260763,0.2669703509423985,270.9732305343959,44.4349374999995,26.04761065217109
15:14:44:90,-0.7203827,1.2192535,8.26265,0.035842896,-0.372406,-0.037826538,61.50055,-44.700623,-260.4004,8.383132788774228,0.3760342923281496,271.2726150333841,44.43493749999949,26.047610736135965
15:14:44:91,-0.6629181,1.2695312,8.358414,-0.0110321045,-0.42460632,-0.038894653,62.85019,-44.550323500000005,-259.95025999999996,8.480227265261059,0.42652670296903067,271.1291971670754,44.434937499999485,26.047610820100836
15:14:44:92,-0.591095,1.3485413,8.923447,-0.09411621,-0.466156,-0.0463562,64.19983,-44.400024,-259.50012,9.044106550601871,0.4778160468205354,270.98577930076675,44.434937499999485,26.04761090406571
15:14:44:93,-0.5144806,1.3485413,9.284973,-0.1633606,-0.4469757,-0.052749634,62.924957500000005,-44.024658,-260.09979,9.396487510570696,0.4788073578277426,271.2041660028848,44.43493749999948,26.04761098803058
15:14:44:94,-0.37083435,1.4131927,9.778183,-0.2230072,-0.40330505,-0.05168152,61.650085,-43.649292,-260.69946,9.886733257449713,0.46374362973183025,271.4225527050029,44.43493749999947,26.047611071995455
15:14:44:95,-0.16253662,1.5281067,10.230682,-0.2230072,-0.3638916,-0.0740509,61.89982066666666,-43.649292,-261.14959666666664,10.345452258096303,0.4331660693004589,271.9117717956248,44.43493749999947,26.047611155960325
15:14:44:96,-0.14099121,1.5520477,10.328842,-0.21768188,-0.3202057,-0.09321594,62.14955633333334,-43.649292,-261.59973333333335,10.44575069802724,0.3982540679803635,272.4009908862467,44.434937499999464,26.0476112399252
15:14:44:97,-0.24633789,1.5065613,10.314484,-0.17507935,-0.13485718,-0.14434814,62.399292,-43.649292,-262.04987,10.42683986128891,0.2639614049732167,272.8902099768686,44.43493749999946,26.04761132389007
15:14:44:98,-0.51927185,1.5185394,10.216324,-0.15483093,-0.060287476,-0.16033936,63.00049,-42.75055,-262.35046,10.341609218904512,0.2309023755016935,273.17473369210813,44.43493749999946,26.047611407854944
15:14:44:99,-0.7203827,1.4610748,10.49884,-0.1484375,-0.029388428,-0.16139221,62.3252875,-43.800354999999996,-261.52495999999996,10.624468558532907,0.22123475440184637,272.3964960281753,44.43493749999945,26.047611491819815
15:14:45:00,-0.7969971,1.3533325,10.704727,-0.12181091,0.018539429,-0.14968872,61.650085,-44.85016,-260.69946,10.819329617748673,0.19387707734003146,271.61825836424254,44.43493749999944,26.04761157578469
15:14:45:01,-0.9645996,1.2767181,10.6736145,-0.079208374,0.12614441,-0.10281372,61.8003845,-43.8751225,-261.374665,10.792891549061261,0.18098905963126716,272.1436799277888,44.43493749999944,26.04761165974956
15:14:45:02,-1.0890961,1.2647552,10.455734,-0.039794922,0.1847229,-0.03463745,61.950684,-42.900085,-262.04987,10.588111706518696,0.19210918391346776,272.6691014913351,44.434937499999435,26.047611743714434
15:14:45:03,-1.20401,1.4371338,10.3025055,-0.022750854,0.16874695,0.030349731,62.30061933333334,-42.85024,-261.2498,10.471705363346159,0.17295733769864804,271.97340005775936,44.43493749999943,26.047611827679304
15:14:45:04,-1.3021698,1.5688171,10.345612,-0.012084961,0.101638794,0.087875366,62.650554666666665,-42.800394999999995,-260.44973,10.5445967649706,0.13490207810771454,271.2776986241837,44.43493749999943,26.04761191164418
15:14:45:05,-1.2471161,1.4969788,10.786133,0.0124053955,-0.009155273,0.13900757,63.00049,-42.75055,-259.64966,10.960698389619962,0.13985999205820387,270.581997190608,44.43493749999942,26.04761199560905
15:14:45:06,-1.0938873,1.3269958,11.169205,0.073135376,-0.11141968,0.17948914,63.00049,-43.499756,-260.0998,11.300825085379559,0.2235609082373378,271.13317110294645,44.43493749999942,26.047612079573923
15:14:45:07,-1.0196533,1.1833496,11.590591,0.15515137,-0.1252594,0.22102356,63.150025,-43.875123,-260.47516,11.69537553297465,0.297679826283728,271.58858188451495,44.434937499999414,26.047612163538794
15:14:45:08,-1.0148773,1.0612335,11.669601,0.23504639,-0.093307495,0.2838745,63.29956,-44.25049,-260.85052,11.761623186226403,0.38018130651763654,272.0439926660835,44.43493749999941,26.047612247503668
15:14:45:09,-1.0268402,1.0157471,11.614532,0.29896545,-0.07307434,0.37016296,63.224792,-44.550325,-259.79996,11.703994896893901,0.48139465765222167,271.06894593167783,44.43493749999941,26.04761233146854
15:14:45:10,-0.8760071,1.046875,11.710297,0.34051514,-0.08052063,0.45751953,63.150024,-44.85016,-258.7494,11.78958826817478,0.5759845942004329,270.0938991972721,44.4349374999994,26.047612415433413
15:14:45:11,-0.5168762,1.022934,12.033524,0.38204956,-0.11248779,0.51930237,63.224792,-45.525360000000006,-259.9495,12.087979766406727,0.6544389357937795,271.3741659025231,44.43493749999939,26.047612499398284
15:14:45:12,-0.3468933,0.9415283,12.344757,0.46728516,-0.08905029,0.5683136,63.29956,-46.20056,-261.1496,12.385468739225608,0.741124633816924,272.6544326077741,44.43493749999939,26.047612583363158
15:14:45:13,-0.29421997,0.809845,12.294479,0.5141449,-0.06880188,0.58535767,63.5246275,-45.6001275,-260.0998,12.32463501269765,0.7821267663974768,271.600919090761,44.434937499999386,26.04761266732803
15:14:45:14,-0.18408203,0.68055725,12.07901,0.62280273,0.047302246,0.6322174,63.749695,-44.999695,-259.05,12.099567221367733,0.888717943914073,270.54740557374794,44.43493749999938,26.047612751292903
15:14:45:15,-0.05479431,0.5009918,11.928177,0.65582275,0.15383911,0.66204834,63.39976,-45.449829333333334,-259.44977666666665,11.938819110088092,0.9444987854306167,270.9245071036454,44.43493749999938,26.047612835257773
15:14:45:16,0.10800171,0.33340454,11.80368,0.67393494,0.27526855,0.6918793,63.049825000000006,-45.89996366666667,-259.84955333333335,11.808881593912927,1.0043196920007076,271.30160863354286,44.43493749999937,26.047612919222647
15:14:45:17,0.27320862,0.11074829,11.451721,0.6877899,0.40097046,0.7014618,62.69989,-46.350098,-260.24933,11.455514916214863,1.061075356981709,271.6787101634403,44.434937499999364,26.047613003187518
15:14:45:18,0.28279114,0.05328369,10.977676,0.6867218,0.45317078,0.7025299,64.50043,-46.949768,-257.85065,10.981447096874735,1.0818959500964307,269.91025154829003,44.434937499999364,26.047613087152392
15:14:45:19,0.29475403,0.09637451,10.699951,0.61535645,0.54052734,0.7121124,64.35013000000001,-47.774505500000004,-258.150485,10.70444390833919,1.0853282618995224,270.3065872552686,44.43493749999936,26.047613171117263
15:14:45:20,0.46235657,0.20890808,10.75502,0.5365143,0.5192261,0.72276306,64.19983,-48.599243,-258.45032,10.766980606656235,1.0391485831806073,270.70292296224716,44.43493749999935,26.047613255082137
15:14:45:21,0.5054474,0.29748535,10.802902,0.4587555,0.49684143,0.71318054,64.19983,-49.124908500000004,-259.20029,10.818810758546217,0.9828196670698987,271.51398876435405,44.43493749999935,26.047613339047007
15:14:45:22,0.5772705,0.32621765,10.869934,0.37886047,0.4734192,0.6780243,64.19983,-49.650574,-259.95026,10.89013885814583,0.9096031805395971,272.325054566461,44.43493749999934,26.04761342301188
15:14:45:23,0.7065582,0.31425476,11.018372,0.29577637,0.4265442,0.623703,64.34987333333333,-49.800618666666665,-259.20004,11.045474280199736,0.8114364102090914,271.6726578505002,44.43493749999934,26.047613506976752
15:14:45:24,0.81430054,0.39086914,11.075836,0.21907043,0.34877014,0.5544586,64.49991666666666,-49.95066333333333,-258.44982,11.112605776906902,0.6906929874915225,271.02026113453934,44.434937499999336,26.047613590941626
15:14:45:25,0.7472534,0.3597412,11.054291,0.14343262,0.27314758,0.4777527,64.64996,-50.100708,-257.6996,11.085357499308264,0.5687092045124738,270.3678644185785,44.43493749999933,26.047613674906497
15:14:45:26,0.7233124,0.378891,11.075836,0.070999146,0.18365479,0.4053192,65.025328,-50.62561049999999,-256.80008499999997,11.105894035005502,0.4506147073846053,269.70040679862393,44.43493749999933,26.04761375887137
15:14:45:27,0.61798096,0.40522766,11.068649,-0.007827759,0.082458496,0.3307495,65.400696,-51.150513,-255.90057,11.093290792571544,0.3409632078740961,269.03294917866936,44.43493749999932,26.047613842836242
15:14:45:28,0.4360199,0.4363556,11.094986,-0.09837341,-0.003829956,0.2561798,66.00037,-50.549316,-258.29926,11.1121210352949,0.2744450514875975,271.34809729340714,44.434937499999315,26.047613926801116
15:14:45:29,0.16307068,0.36213684,11.20752,-0.18572998,-0.029388428,0.18800354,65.85007,-50.6996155,-257.47452,11.214554814523886,0.2659034340200276,270.5548137761398,44.434937499999315,26.047614010765987
15:14:45:30,-0.07394409,0.26397705,11.34877,-0.25390625,0.007888794,0.13900757,65.69977,-50.849915,-256.64978,11.352080519634832,0.28957507036542673,269.7615302588724,44.43493749999931,26.04761409473086
15:14:45:31,-0.35646057,0.09637451,11.727066,-0.28266907,0.07394409,0.118759155,65.29999,-50.89976,-257.29980333333333,11.732878127403287,0.31539383075277017,270.29366695561754,44.4349374999993,26.047614234672317
15:14:45:32,-0.66770935,-0.10473633,12.033524,-0.23686218,0.1570282,0.13154602,64.90021,-50.949605000000005,-257.9498266666667,12.05248959068106,0.3131547593242562,270.82580365236265,44.43493749999929,26.04761437461377
15:14:45:33,-0.87361145,-0.427948,12.086182,-0.118621826,0.26142883,0.17521667,64.50043,-50.99945,-258.59985,12.125268318408427,0.3363287858697677,271.35794034910776,44.434937499999286,26.04761451455522
15:14:45:34,-1.0675507,-0.7894745,11.815643,0.043304443,0.37753296,0.26045227,64.95056299999999,-50.174713,-257.775115,11.89001068067938,0.4606970757646012,270.5271894347924,44.43493749999928,26.047614654496677
15:14:45:35,-1.1369781,-0.97862244,11.027954,0.20948792,0.48086548,0.37443542,65.400696,-49.349976,-256.95038,11.12951888026015,0.6444522342517971,269.69643852047693,44.43493749999927,26.047614794438132
15:14:45:36,-1.0843048,-0.9546814,10.113373,0.34477234,0.551178,0.5011902,65.325163,-49.575042999999994,-256.50023999999996,10.21603870939896,0.8208877942137498,269.29078960270755,44.434937499999265,26.047614934379585
15:14:45:37,-0.89515686,-0.83496094,9.150894,0.42785645,0.5575714,0.6034546,65.24963,-49.80011,-256.0501,9.232406326335877,0.9263392802670749,268.88514068493816,44.43493749999925,26.047615074321037
15:14:45:38,-0.6509552,-0.7224426,8.394333,0.46728516,0.5085602,0.6684418,65.024565,-50.550079999999994,-256.2004,8.450472915617848,0.9611468866762798,269.1147201366475,44.43493749999924,26.047615214262493
15:14:45:39,-0.49293518,-0.68652344,7.702408,0.4832611,0.43933105,0.7003937,64.7995,-51.30005,-256.3507,7.748637849571695,0.9576556778231947,269.3442995883568,44.434937499999236,26.04761535420395
15:14:45:40,-0.37322998,-0.68652344,7.1349792,0.46514893,0.35090637,0.7153168,65.249635,-52.200317999999996,-255.90057000000002,7.177641899403513,0.9225925059033169,269.2000830532138,44.43493749999923,26.0476154941454
15:14:45:41,-0.28703308,-0.720047,6.8405,0.42253113,0.24118042,0.71743774,65.69977,-53.100586,-255.45044,6.88427889624057,0.8668433893078732,269.05586651807073,44.43493749999922,26.047615634086853
15:14:45:42,-0.17689514,-0.7128601,6.663315,0.36927795,0.11654663,0.7153168,65.999605,-53.175354,-255.000305,6.703672739771283,0.8134048473440513,268.7171469503353,44.434937499999215,26.04761577402831
15:14:45:43,0.07928467,-0.6721649,6.893158,0.31921387,-0.040039062,0.7078552,66.29944,-53.250122,-254.55017,6.926306297345867,0.7775343114314999,268.3784273825998,44.43493749999921,26.047615913969764
15:14:45:44,0.27560425,-0.59794617,7.1277924,0.28085327,-0.20196533,0.6759033,65.774535,-53.7750245,-254.55017,7.158136756330762,0.7592850747529493,268.3549557180661,44.4349374999992,26.047616053911216
15:14:45:45,0.5006561,-0.423172,7.43425,0.259552,-0.31913757,0.60772705,65.24963,-54.299927,-254.55017,7.463096149357263,0.7338584308919586,268.33148405353245,44.434937499999194,26.04761619385267
15:14:45:46,0.6562805,-0.3010559,7.518051,0.2318573,-0.3713379,0.50546265,64.949795,-53.8497935,-254.100035,7.552643880668945,0.6686868729717389,267.74101367736705,44.43493749999919,26.047616333794124
15:14:45:47,0.7041626,-0.25556946,7.6904297,0.17539978,-0.3532257,0.36909485,64.64996,-53.39966,-253.6499,7.726827918801191,0.5401522806219196,267.1505433012016,44.43493749999918,26.04761647373558
15:14:45:48,0.5700836,-0.22683716,7.949005,0.10934448,-0.28504944,0.23594666,65.100095,-53.8497935,-254.32510000000002,7.972648926057815,0.38585000313067197,267.9911075157884,44.43493749999917,26.047616613677032
15:14:45:49,0.31869507,-0.27711487,8.095047,0.037979126,-0.16680908,0.11663818,65.55023,-54.299927,-255.0003,8.10605607746618,0.2070559060154592,268.83167173037526,44.434937499999165,26.047616753618485
15:14:45:50,-0.05239868,-0.40161133,8.095047,-0.029129028,-0.041107178,0.029281616,64.80026000000001,-53.9253235,-255.0003,8.105172620879774,0.05827274998590614,268.5755096327663,44.43493749999915,26.04761689355994
15:14:45:51,-0.2798462,-0.50935364,8.18364,-0.09625244,0.017486572,-0.021850586,64.05029,-53.55072,-255.0003,8.204250037379145,0.10023851811957407,268.31934753515725,44.434937499999144,26.047617033501396
15:14:45:52,-0.5168762,-0.44711304,8.3967285,-0.13034058,0.03665161,-0.05380249,63.8999925,-53.9253235,-254.624935,8.42449527149115,0.14569390941466498,268.00225810640484,44.43493749999914,26.04761717344285
15:14:45:53,-0.70602417,-0.427948,8.583466,-0.12927246,0.05795288,-0.07084656,63.749695,-54.299927,-254.24957,8.62307939152158,0.1583955184927263,267.6851686776525,44.43493749999913,26.0476173133843
15:14:45:54,-0.7419281,-0.34654236,8.753464,-0.09197998,0.024932861,-0.08149719,63.3750925,-54.1496285,-254.39987000000002,8.791682484720429,0.1253944028110578,267.70891545658515,44.43493749999912,26.047617453325756
15:14:45:55,-0.8712158,-0.2866974,8.741486,-0.028076172,-0.062408447,-0.099609375,63.00049,-53.99933,-254.55017,8.789470396874457,0.12085161678279699,267.73266223551786,44.434937499999116,26.047617593267212
15:14:45:56,-0.9190979,-0.29626465,8.607407,0.020935059,-0.12846375,-0.12837219,63.75046,-53.99933,-254.775235,8.661406869341322,0.18281310381039997,268.1248374690548,44.43493749999911,26.047617733208664
15:14:45:57,-0.92388916,-0.38006592,8.2387085,0.03477478,-0.13165283,-0.14648438,64.50043,-53.99933,-255.0003,8.29905651453725,0.1999985663824661,268.5170127025917,44.4349374999991,26.047617873150116
15:14:45:58,-0.88079834,-0.43273926,7.8077545,0.024124146,-0.11035156,-0.1560669,64.725495,-53.849793000000005,-253.9505,7.86918669972713,0.1926559588755897,267.54490550671335,44.434937499999094,26.047618013091572
15:14:45:59,-0.9454346,-0.40400696,7.4174957,-0.10902405,-0.0059509277,-0.16885376,64.95056,-53.700256,-252.9007,7.488411758585667,0.20108020609953314,266.572798310835,44.43493749999909,26.047618153033028
15:14:45:60,-1.0124817,-0.34654236,7.391159,-0.24751282,0.054763794,-0.17524719,65.17562799999999,-53.400421,-253.4256,7.468228850496633,0.30817729767217267,267.06586293917417,44.43493749999908,26.04761829297448
15:14:45:61,-0.9262848,-0.29388428,8.032806,-0.36470032,0.09310913,-0.17631531,65.400696,-53.100586,-253.9505,8.091374650476777,0.4156473529782855,267.55892756751325,44.43493749999907,26.047618432915932
15:14:45:62,-0.94303894,-0.1933136,8.56192,-0.4232788,0.12080383,-0.17524719,65.025328,-53.625488000000004,-254.175565,8.615867145952363,0.47378274079477084,267.78651827115164,44.434937499999066,26.047618572857388
15:14:45:63,-0.94065857,-0.14065552,9.162872,-0.4147644,0.1250763,-0.18164062,64.64996,-54.15039,-254.40063,9.212103223966007,0.46975195919020324,268.01410897478996,44.43493749999905,26.047618712798844
15:14:45:64,-0.97895813,-0.07839966,9.423843,-0.34765625,0.10482788,-0.19548035,65.174865,-53.025055,-254.550165,9.474878490810855,0.4123909793211769,268.06112743393146,44.434937499999045,26.047618852740296
15:14:45:65,-1.0483856,-0.0448761,9.275391,-0.26669312,0.10057068,-0.21891785,65.69977,-51.89972,-254.6997,9.334559680751932,0.3593949178544673,268.10814589307296,44.43493749999904,26.04761899268175
15:14:45:66,-1.1657104,-0.037704468,8.9066925,-0.23046875,0.10696411,-0.2306366,65.55023299999999,-52.500153,-254.1748,8.982731970460412,0.3431477915042068,267.69088958106073,44.43493749999903,26.047619132623204
15:14:45:67,-1.2135925,-0.0448761,8.593048,-0.25390625,0.11442566,-0.2263794,65.400696,-53.100586,-253.6499,8.678438485736443,0.35890005321796503,267.2736332690485,44.43493749999902,26.04761927256466
15:14:45:68,-1.1369781,-0.006576538,8.425461,-0.32421875,0.13465881,-0.20187378,65.850068,-53.325653,-253.199765,8.501832479721807,0.40497384608597503,267.0025457612089,44.434937499999016,26.047619412506112
15:14:45:69,-1.065155,0.026947021,8.494888,-0.41583252,0.16448975,-0.17524719,66.29944,-53.55072,-252.74963,8.561448676976914,0.4802969291464489,266.73145825336934,44.43493749999901,26.047619552447564
15:14:45:70,-1.0340271,0.14425659,9.03598,-0.4925232,0.19218445,-0.15287781,66.82434,-53.100584999999995,-252.449795,9.096095677140433,0.5503504248662289,266.4893486892755,44.434937499999,26.04761969238902
15:14:45:71,-0.962204,0.33580017,9.61058,-0.5223541,0.20176697,-0.12944031,67.34924,-52.65045,-252.14996,9.66446305948696,0.5747334250090967,266.2472391251817,44.434937499998995,26.047619832330476
15:14:45:72,-0.90953064,0.35734558,10.053513,-0.4978485,0.20497131,-0.10707092,66.97464,-51.525115,-251.249695,10.100894291586927,0.5489358330306126,265.0805635380548,44.43493749999899,26.047619972271928
15:14:45:73,-0.8424835,0.3884735,10.331238,-0.4456482,0.19857788,-0.090026855,66.60004,-50.39978,-250.34943,10.37280910460703,0.49612531401826837,263.91388795092786,44.43493749999898,26.04762011221338
15:14:45:74,-0.61743164,0.4794464,10.606567,-0.37321472,0.16555786,-0.08256531,67.0501725,-51.824951,-250.799565,10.635335171306782,0.41655211276364223,264.73333346000095,44.43493749999897,26.047620252154836
15:14:45:75,-0.4450531,0.55366516,10.735855,-0.27946472,0.11868286,-0.090026855,67.500305,-53.250122,-251.2497,10.759330831991479,0.31668752044191606,265.5527789690741,44.434937499998966,26.04762039209629
15:14:45:76,-0.49053955,0.7021179,10.620941,-0.18466187,0.09310913,-0.101745605,67.500305,-53.250122,-251.2497,10.655420513574095,0.23048098502494696,265.5527789690741,44.43493749999895,26.047620532037744
15:14:45:77,-0.48335266,0.83618164,10.479675,-0.10797119,0.047302246,-0.103881836,67.500305,-53.250122,-251.2497,10.524087496530385,0.15712006936541084,265.5527789690741,44.434937499998945,26.047620671979196
15:14:45:78,-0.44026184,0.85295105,10.403061,-0.055770874,-0.051757812,-0.09642029,67.42477249999999,-52.4253845,-251.69983,10.447250076033274,0.1228256236028758,265.79720479871804,44.43493749999894,26.047620811920652
15:14:45:79,-0.2750702,0.84576416,10.43898,-0.028076172,-0.12739563,-0.101745605,67.34924,-51.600647,-252.14996,10.476797414747914,0.1654390707000209,266.041630628362,44.43493749999893,26.047620951862108
15:14:45:80,-0.20083618,0.86491394,10.472504,-0.038726807,-0.17745972,-0.123046875,66.374968,-51.750183500000006,-251.39999,10.510078559402842,0.21939063619525623,265.1157286335091,44.434937499998924,26.04762109180356
15:14:45:81,-0.10267639,0.9606781,10.707123,-0.08239746,-0.21794128,-0.14968872,65.400696,-51.89972,-250.65002,10.75062453023135,0.2769376388967892,264.1898266386562,44.43493749999892,26.047621231745012
15:14:45:82,-0.026062012,0.9870148,11.073441,-0.1356659,-0.24563599,-0.18164062,66.225433,-51.599885,-250.424955,11.11737257738399,0.3342687404470758,264.12464991590275,44.43493749999891,26.047621371686468
15:14:45:83,0.021820068,0.90322876,11.360748,-0.18998718,-0.2424469,-0.22319031,67.05017,-51.30005,-250.19989,11.396617631023805,0.38038078600510106,264.05947319314924,44.4349374999989,26.047621511627923
15:14:45:84,-0.08831787,0.75717163,11.681564,-0.23579407,-0.20303345,-0.2540741,67.2752375,-51.14975,-249.825285,11.706410483557042,0.4017151647086246,263.7328846491724,44.434937499998895,26.047621651569376
15:14:45:85,-0.15534973,0.63986206,12.100555,-0.2741394,-0.17001343,-0.2743225,67.500305,-50.99945,-249.45068,12.118456514856316,0.42344989198130034,263.4062961051955,44.43493749999889,26.047621791510828
15:14:45:86,-0.16493225,0.51057434,12.794876,-0.27734375,-0.14125061,-0.28497314,67.20047,-50.9246825,-249.300385,12.80612121835228,0.4219964229835298,263.17289377943655,44.43493749999888,26.047621931452284
15:14:45:87,-0.3373108,0.4507141,13.491592,-0.21342468,-0.10076904,-0.28390503,66.900635,-50.849915,-249.15009,13.503332050653254,0.36919718243091304,262.93949145367753,44.434937499998874,26.04762207139374
15:14:45:88,-0.6222229,0.31903076,13.795654,-0.08665466,-0.044311523,-0.24449158,67.3500075,-50.3250125,-250.199895,13.813363502450322,0.2631514276252202,263.9491956752048,44.43493749999886,26.04762221133519
15:14:45:89,-0.76586914,0.24720764,13.6184845,0.06248474,0.015350342,-0.18057251,67.79938,-49.80011,-251.2497,13.642242749402275,0.19169352388665786,264.9588998967321,44.43493749999885,26.047622351276644
15:14:45:90,-0.6341858,0.22087097,12.837967,0.18284607,0.013214111,-0.113464355,68.325045,-48.9753725,-250.42496,12.8555191379967,0.21559558877567797,264.16009938333025,44.434937499998846,26.0476224912181
15:14:45:91,-0.5216675,0.21609497,12.588974,0.27340698,-0.02619934,-0.049545288,68.85071,-48.150635,-249.60022,12.60163086228491,0.27909231034222165,263.36129886992836,44.43493749999884,26.047622631159555
15:14:45:92,-0.2966156,0.09877014,11.875504,0.33198547,-0.05921936,0.0037231445,68.099975,-49.2752075,-249.07532,11.879618327569913,0.3372464183574058,262.88027713527663,44.43493749999883,26.047622771101008
15:14:45:93,-0.14578247,0.22087097,11.214706,0.34690857,-0.10076904,0.031417847,67.34924,-50.39978,-248.55042,11.217828095508686,0.3626114124956383,262.39925540062495,44.434937499998824,26.04762291104246
15:14:45:94,-0.05958557,0.457901,10.592209,0.30003357,-0.16255188,0.03993225,66.524505,-49.4995115,-248.17505,10.602269345080526,0.3435663566307705,261.6632506056346,44.43493749999882,26.047623050983916
15:14:45:95,0.17984009,0.9295654,10.395889,0.19351196,-0.2190094,0.018630981,65.69977,-48.599243,-247.79968,10.43891480907711,0.2928465629035519,260.9272458106442,44.43493749999881,26.04762319092537
15:14:45:96,0.4192505,1.1091309,10.759796,0.052886963,-0.2658844,-0.038894653,65.924835,-48.9746095,-248.474885,10.824931976539208,0.27386920062452036,261.6952851940193,44.4349374999988,26.047623330866823
15:14:45:97,0.5557251,1.1570129,11.157242,-0.08026123,-0.2893219,-0.13902283,66.1499,-49.349976,-249.15009,11.23083070320715,0.33087214165283213,262.46332457739436,44.434937499998796,26.047623470808276
15:14:45:98,0.47431946,0.96307373,11.631287,-0.1676178,-0.28718567,-0.26686096,65.924835,-49.500275,-248.24982,11.68072460234894,0.42636382105229154,261.58065457650207,44.43493749999879,26.04762361074973
15:14:45:99,0.22053528,0.64704895,11.961685,-0.20916748,-0.28611755,-0.39042664,65.69977,-49.650574,-247.34955,11.981202618796068,0.5273018569370324,260.6979845756098,44.43493749999878,26.047623750691187
15:14:46:00,-0.08352661,0.34536743,12.064636,-0.18786621,-0.22966003,-0.51293945,66.67480499999999,-49.650574,-248.09951999999998,12.069867321921103,0.5925743173692793,261.65754972392097,44.434937499998775,26.04762389063264
15:14:46:01,-0.35406494,0.041305542,12.067032,-0.14205933,-0.17427063,-0.54489136,67.64984,-49.650574,-248.84949,12.072295946445362,0.5894554265788852,262.61711487223215,44.43493749999876,26.04762403057409
15:14:46:02,-0.52645874,-0.26275635,12.055069,-0.079208374,-0.11248779,-0.54489136,66.82510500000001,-48.8250735,-248.549655,12.069419551045058,0.561991159728921,261.968403006926,44.43493749999875,26.047624170515547
15:14:46:03,-0.50968933,-0.51893616,11.918594,0.006011963,-0.020874023,-0.5278473,66.00037,-47.999573,-248.24982,11.940768856656904,0.5282940853848431,261.3196911416199,44.434937499998746,26.047624310457003
15:14:46:04,-0.3947754,-0.6913147,11.504395,0.106155396,0.092041016,-0.5108032,66.89987500000001,-47.999573,-247.574615,11.531906518304172,0.5297739384458895,260.909637888221,44.43493749999874,26.047624450398455
15:14:46:05,-0.33491516,-0.854126,10.915421,0.19563293,0.20497131,-0.48310852,67.79938,-47.999573,-246.89941,10.953908662916394,0.5600708199148492,260.4995846348221,44.43493749999873,26.047624590339908
15:14:46:06,-0.3085785,-0.95228577,10.178009,0.26913452,0.29870605,-0.43623352,66.600038,-47.924805,-247.12448,10.227117682049412,0.5932608011101216,260.3926724178878,44.434937499998725,26.047624730281363
15:14:46:07,-0.17211914,-1.0241089,9.375946,0.306427,0.34344482,-0.38616943,65.400696,-47.850037,-247.34955,9.433280841379078,0.6008150126123325,260.2857602009535,44.43493749999872,26.04762487022282
15:14:46:08,-0.08592224,-1.0193176,8.722336,0.3096161,0.31256104,-0.3435669,66.075133,-47.399902499999996,-247.42507999999998,8.78211456870681,0.558206725040734,260.44669600854104,44.43493749999871,26.04762501016427
15:14:46:09,-0.06437683,-0.9834137,8.30574,0.29577637,0.23266602,-0.29776,66.74957,-46.949768,-247.50061,8.364004054828557,0.4798730618747184,260.60763181612856,44.4349374999987,26.047625150105723
15:14:46:10,0.0816803,-0.8900299,8.135757,0.27127075,0.11228943,-0.26367188,66.1499,-46.949768,-247.20001,8.18470322353542,0.39461322354683176,260.1695465942761,44.434937499998696,26.04762529004718
15:14:46:11,0.23251343,-0.8565216,8.272232,0.25422668,-0.028320312,-0.24662781,65.55023,-46.949768,-246.89941,8.319706365504791,0.355328751385243,259.73146137242367,44.43493749999869,26.047625429988635
15:14:46:12,0.27560425,-0.86369324,8.257858,0.24996948,-0.12632751,-0.23916626,65.55023,-46.575164,-246.674345,8.307475095575295,0.36829862969695953,259.4502320838374,44.43493749999868,26.047625569930087
15:14:46:13,0.27560425,-0.98101807,8.207581,0.24890137,-0.16894531,-0.23384094,65.55023,-46.20056,-246.44928,8.27059490168909,0.3810196779419097,259.1690027952512,44.434937499998675,26.04762570987154
15:14:46:14,0.29714966,-1.0432587,8.078293,0.23397827,-0.17533875,-0.22212219,65.100095,-46.050261500000005,-245.62454,8.150797778709322,0.367189018591449,258.24429116451716,44.43493749999866,26.047625849812995
15:14:46:15,0.20857239,-1.0576324,7.884369,0.22332764,-0.16041565,-0.21253967,64.64996,-45.899963,-244.7998,7.957723497556388,0.34753636770358437,257.31957953378316,44.434937499998654,26.04762598975445
15:14:46:16,0.22053528,-1.0432587,7.774231,0.19351196,-0.10076904,-0.19548035,64.80026,-45.3750615,-245.324705,7.847018042939074,0.292940002938632,257.76453680731925,44.43493749999865,26.047626129695903
15:14:46:17,0.16307068,-0.94270325,7.6138153,0.15515137,-0.032592773,-0.17738342,64.95056,-44.85016,-245.84961,7.673686525181382,0.2379056833192575,258.2094940808554,44.43493749999864,26.047626269637355
15:14:46:18,0.24447632,-0.9259491,7.6497345,0.1253357,-0.009155273,-0.15501404,65.100095,-44.9249275,-245.77484,7.709447991090011,0.19955502828873076,258.1890326479667,44.43493749999863,26.04762640957881
15:14:46:19,0.3426361,-0.73680115,7.7526855,0.14875793,-0.007019043,-0.14222717,65.24963,-44.999695,-245.70007,7.7951528460688175,0.20592900861396302,258.16857121507803,44.434937499998625,26.047626549520267
15:14:46:20,0.34024048,-0.65301514,7.695221,0.17326355,-0.007019043,-0.13796997,65.24963,-45.6001275,-245.324705,7.730369887407772,0.22159701565011936,257.9176907533766,44.43493749999862,26.04762668946172
15:14:46:21,0.30433655,-0.37527466,7.477356,0.22332764,-0.03364563,-0.13690186,65.24963,-46.20056,-244.94934,7.492950323927153,0.26410108382497427,257.6668102916751,44.43493749999861,26.047626869386445
15:14:46:22,0.27560425,-0.32499695,7.386368,0.26168823,-0.095443726,-0.14222717,65.24963,-45.6001275,-244.799805,7.398649400502187,0.3127599757633718,257.4182422926633,44.4349374999986,26.04762704931117
15:14:46:23,0.16067505,-0.2172699,7.2187805,0.27659607,-0.15615845,-0.13796997,65.24963,-44.999695,-244.65027,7.2238365560357725,0.34630414387882846,257.16967429365155,44.43493749999859,26.0476272292359
15:14:46:24,0.19180298,-0.22683716,7.225952,0.27340698,-0.1870575,-0.12837219,64.12505999999999,-44.850159000000005,-244.42520000000002,7.232055433042376,0.3552763771831256,256.6482110372996,44.434937499998576,26.047627409160626
15:14:46:25,0.36657715,-0.14303589,7.3768005,0.23825073,-0.18811035,-0.115600586,63.00049,-44.700623,-244.20013,7.387287979328439,0.32482673782525784,256.12674778094754,44.43493749999857,26.04762758908535
15:14:46:26,0.54374695,-0.07600403,7.3217316,0.22332764,-0.1721344,-0.12197876,64.35013000000001,-44.4000245,-244.725035,7.342287857381315,0.3072202863459169,256.91285217966396,44.43493749999856,26.047627769010077
15:14:46:27,0.6538849,-0.04008484,7.058365,0.15408325,-0.050689697,-0.15820312,65.69977,-44.099426,-245.24994,7.088701484056925,0.22658181853416376,257.6989565783804,44.43493749999855,26.047627948934807
15:14:46:28,0.70176697,0.15144348,6.857254,0.0635376,0.03453064,-0.19442749,65.249635,-43.650055,-245.09964000000002,6.894733093335339,0.20744020965152754,257.36548260845143,44.43493749999854,26.047628128859532
15:14:46:29,0.7352905,0.3166504,6.9099274,-0.03552246,0.06755066,-0.24023438,64.7995,-43.200684,-244.94934,6.956149528904707,0.25206644791576605,257.0320086385224,44.434937499998526,26.047628308784258
15:14:46:30,0.8023224,0.5153656,7.154129,-0.13246155,0.051574707,-0.29348755,65.249635,-42.9000855,-244.124605,7.217401518818675,0.3260996084565893,256.31076439643823,44.43493749999852,26.047628488708984
15:14:46:31,0.7137451,0.7811127,7.585083,-0.20170593,0.021743774,-0.34994507,65.69977,-42.599487,-243.29987,7.658528137623071,0.40449922858051646,255.5895201543541,44.434937499998505,26.047628668633713
15:14:46:32,0.47431946,0.967865,8.080688,-0.22407532,-0.0016937256,-0.3755188,64.87503000000001,-43.4249885,-243.97507000000002,8.152254912703828,0.4372950798865115,256.1636621966128,44.4349374999985,26.04762884855844
15:14:46:33,0.19180298,1.0205383,8.633743,-0.25923157,-0.11781311,-0.42878723,64.05029,-44.25049,-244.65027,8.695964868544076,0.5147226674468591,256.7378042388715,44.43493749999849,26.047629028483165
15:14:46:34,-0.08831787,1.0277252,9.143707,-0.26029968,-0.19343567,-0.43411255,64.12506,-44.174958000000004,-243.60046499999999,9.201706191501954,0.5418735903363014,255.74354658605827,44.434937499998476,26.04762920840789
15:14:46:35,-0.36125183,1.0492706,9.359192,-0.25709534,-0.19877625,-0.42132568,64.19983,-44.099426,-242.55066,9.424751804136102,0.5320952358753464,254.74928893324505,44.43493749999847,26.047629388332616
15:14:46:36,-0.46420288,1.0109558,9.46933,-0.265625,-0.16894531,-0.41067505,65.29998833333333,-43.14982066666667,-242.65035,9.534449464560286,0.5174486980257064,254.96928272631328,44.434937499998455,26.047629568257346
15:14:46:37,-0.7515106,1.1067352,9.620163,-0.29971313,-0.07626343,-0.36593628,66.40014666666667,-42.20021533333333,-242.75003999999998,9.71273221763065,0.4791173468681761,255.1892765193815,44.43493749999845,26.04762974818207
15:14:46:38,-1.022049,1.2719269,9.900284,-0.33805847,0.02281189,-0.29562378,67.500305,-41.25061,-242.84973,10.033843006445766,0.4496635750932039,255.40927031244973,44.43493749999844,26.047629928106797
15:14:46:39,-1.0627594,1.315033,9.914642,-0.3710785,0.13465881,-0.21572876,67.1249375,-41.4756775,-242.84973,10.057777852067591,0.44985680628840513,255.3471521615441,44.434937499998426,26.047630108031523
15:14:46:40,-1.0819092,1.4658661,9.998444,-0.40304565,0.24012756,-0.14222717,66.74957,-41.700745,-242.84973,10.16307893117582,0.49024035833628077,255.28503401063844,44.43493749999842,26.047630287956252
15:14:46:41,-1.0148773,1.7220459,10.146881,-0.43074036,0.3253479,-0.011199951,65.9996,-41.100311500000004,-242.099765,10.341886290417387,0.5399203206675426,254.2792813089682,44.434937499998405,26.04763046788098
15:14:46:42,-0.8903656,1.9638519,10.405457,-0.41688538,0.29763794,0.064437866,65.24963,-40.499878,-241.3498,10.626523446812037,0.5162693114642997,253.27352860729795,44.4349374999984,26.047630647805704
15:14:46:43,-0.7586975,2.1601868,10.766983,-0.37960815,0.20603943,0.1219635,66.29944,-38.69934,-241.3498,11.007722372484213,0.448809190629378,253.26464542211414,44.434937499998384,26.04763082773043
15:14:46:44,-0.59588623,2.193695,11.231461,-0.30503845,0.09843445,0.16030884,65.69977,-38.79954,-240.60008333333332,11.459192569577038,0.35838069298910424,252.4097181557562,44.43493749999838,26.047631007655156
15:14:46:45,-0.45941162,2.1673584,11.569046,-0.25816345,0.035583496,0.17842102,65.1001,-38.89974,-239.85036666666667,11.779275309659656,0.31583003733230464,251.55479088939825,44.43493749999837,26.047631187579885
15:14:46:46,-0.24154663,2.1577911,12.081406,-0.1356659,-0.093307495,0.192276,64.50043,-38.99994,-239.10065,12.274965504739294,0.2531434084110922,250.6998636230403,44.434937499998355,26.04763136750461
15:14:46:47,-0.21520996,1.848938,12.466873,0.11148071,-0.21794128,0.20718384,64.550275,-38.99994,-239.22551666666666,12.605070783333833,0.3207046831390027,250.831785289315,44.43493749999835,26.047631547429337
15:14:46:48,-0.1930618275,1.6723633,12.402828,0.1807212825,-0.25922012,0.213840485,64.60011999999999,-38.99994,-239.35038333333333,12.519976189422433,0.38891307737822656,250.9637069555897,44.434937499998334,26.047631727354062
15:14:46:49,-0.170913695,1.4957886,12.338783,0.249961855,-0.30049896,0.22049712999999999,64.649965,-38.99994,-239.47525000000002,12.434881595511033,0.4571214716174504,251.09562862186442,44.43493749999833,26.04763190727879
15:14:46:50,-0.1487655625,1.3192139,12.274738,0.3192024275,-0.3417778,0.227153775,64.69981,-38.99994,-239.60011666666668,12.349787001599633,0.5253298658566743,251.22755028813913,44.43493749999832,26.047632087203517
15:14:46:51,-0.12661743,1.1426392,12.210693,0.388443,-0.38305664,0.23381042,64.74965499999999,-38.99994,-239.72498333333334,12.264692407688234,0.5935382600958982,251.35947195441383,44.434937499998306,26.047632267128243
15:14:46:52,-0.0332489,1.0205383,12.229843,0.3618164,-0.292511,0.2519226,64.7995,-38.99994,-239.84985,12.272394375824431,0.5290924199237029,251.49139362068854,44.4349374999983,26.04763244705297
15:14:46:53,0.10562134,0.81703186,12.3615265,0.3096161,-0.16148376,0.25405884,64.72473,-39.1502385,-239.17464999999999,12.388948072290912,0.4318391231756257,250.85178897494717,44.434937499998284,26.0476326269777
15:14:46:54,0.18223572,0.53211975,12.407013,0.25102234,0.05795288,0.23701477,64.64996,-39.300537,-238.49945,12.41975574913424,0.35006678316790196,250.21218432920583,44.43493749999828,26.047632806902424
15:14:46:55,0.18940735,0.4076233,12.385468,0.2403717,0.12719727,0.22636414,64.42489499999999,-38.925171,-239.099885,12.393621322194774,0.35383389257430176,250.6687747634441,44.43493749999827,26.04763298682715
15:14:46:56,0.20857239,0.12031555,12.050278,0.2552948,0.26782227,0.18055725,64.19983,-38.549805,-239.70032,12.05268344190314,0.41170999956590243,251.12536519768236,44.434937499998256,26.047633166751876
15:14:46:57,0.10800171,0.06524658,11.832397,0.26594543,0.26249695,0.1262207,63.00049,-38.69934,-239.39972,11.833069772936085,0.39441511837869175,250.55723217012536,44.43493749999825,26.0476333466766
15:14:46:58,-0.199645995,0.042503356,11.452919000000001,0.25263214,0.251312255,0.0905380235,62.475587000000004,-38.024902,-239.17464999999999,11.459071150250114,0.368922341700467,250.10834630913587,44.434937499998235,26.04763352660133
15:14:46:59,-0.5072937,0.019760132,11.073441,0.23931885,0.24012756,0.054855347,61.950684,-37.350464,-238.94958,11.085072527564146,0.34342956502224226,249.65946044814635,44.43493749999823,26.047633706526057
15:14:46:60,-0.60546875,-0.0017852783,10.922607,0.15515137,0.15916443,0.029281616,62.8501895,-36.675262000000004,-238.275145,10.939375634417814,0.22419339068240451,249.14196345666852,44.43493749999821,26.047633886450782
15:14:46:61,-1.148941,-0.19570923,10.946548,-0.025939941,0.05050659,0.019699097,63.749695,-36.00006,-237.60071,11.008418625783278,0.06009867382169917,248.62446646519066,44.434937499998206,26.047634066375508
15:14:46:62,-1.6277924,-0.5165405,11.28653,-0.14205933,-0.0016937256,0.058044434,62.749735666666666,-35.80017,-238.00048999999999,11.415002480356192,0.15346947013929954,248.72835092124652,44.4349374999982,26.047634246300237
15:14:46:63,-1.7103882,-0.8265914999999999,11.7091065,-0.18413544,-0.0341873178,0.17256164699999998,61.74977633333334,-35.60028,-238.40027,11.865513910868845,0.2624982143724518,248.83223537730237,44.434937499998185,26.047634426224963
15:14:46:64,-1.792984,-1.1366425,12.131683,-0.22621155,-0.06668091,0.28707886,60.749817,-35.40039,-238.80005,12.316025341381499,0.37152695860560403,248.93611983335822,44.43493749999818,26.04763460614969
15:14:46:65,-1.5009003,-1.2754974,12.471649,-0.16229248,-0.081588745,0.42982483,61.09975133333333,-35.40039,-238.04982666666666,12.62622762772586,0.4666315000723315,248.3035592041587,44.43493749999816,26.047634786074415
15:14:46:66,-1.2471161,-1.3425446,12.474045,-0.012092589999999986,-0.056022644,0.528892515,61.44968566666667,-35.40039,-237.29960333333335,12.607915102501815,0.5551601379431327,247.67099857495913,44.434937499998156,26.047634965999144
15:14:46:67,-0.27267456,-1.3592987,11.978455,0.1381073,-0.030456543,0.6279602,61.79962,-35.40039,-236.54938,12.058417332242149,0.6436887758139339,247.0384379457596,44.43493749999815,26.04763514592387
15:14:46:68,-0.016494751,-1.3114166,11.631287,0.22227478,-0.016601562,0.6418152,61.049651499999996,-35.175323000000006,-236.924745,11.704995636561986,0.6794177217558637,247.1809696987794,44.434937499998135,26.047635325848596
15:14:46:69,0.646698,-0.97862244,10.534744,0.41081238,-0.05496216,0.61198425,60.299683,-34.950256,-237.30011,10.59984675968533,0.739129469606775,247.3235014517992,44.43493749999813,26.04763550577332
15:14:46:70,0.95077515,-0.85173035,9.859589,0.47261047,-0.12846375,0.529953,60.299683,-34.450276333333335,-237.80008999999998,9.941876745559142,0.7216049983382068,247.734571820307,44.434937499998114,26.047635685698047
15:14:46:71,0.95795441,-0.893623355,9.302933,0.44438171000000004,-0.16521454,0.42556,60.299683,-33.95029666666667,-238.30007,9.395416738121758,0.6423702149164487,248.14564218881478,44.43493749999811,26.047635865622777
15:14:46:72,0.96513367,-0.93551636,8.746277,0.41615295,-0.20196533,0.321167,60.299683,-33.450317,-238.80005,8.848956730684375,0.5631354314946906,248.55671255732258,44.43493749999809,26.047636045547502
15:14:46:73,0.82388306,-1.040863,8.447006,0.37034607,-0.20835876,0.2700348,58.5746765,-34.0499885,-239.099885,8.550677718482902,0.5034762930309852,248.52077038642773,44.434937499998085,26.04763622547223
15:14:46:74,0.5413666,-1.0911407,8.32251,0.1892395,-0.14762878,0.11663818,56.84967,-34.64966,-239.39972,8.41117343317162,0.2668525999091086,248.4848282155329,44.43493749999808,26.047636405396954
15:14:46:75,0.32588196,-1.0815735,8.26265,0.11999512,-0.10395813,0.07295227,57.4501035,-33.6746225,-239.099885,8.339507498063401,0.17472308180393395,248.20268151749244,44.434937499998064,26.047636585321683
15:14:46:76,-0.3875885,-1.0767822,8.408691,-0.095184326,0.010025024,0.0005187988,58.050537,-32.699585,-238.80005,8.486210525614485,0.09571220493996434,247.92053481945197,44.43493749999806,26.04763676524641
15:14:46:77,-0.71559143,-1.0983276,8.645721,-0.20277405,0.08352661,-0.005874634,57.6004035,-33.7501525,-238.500215,8.744534648650676,0.21938213522556607,247.6702755999849,44.43493749999804,26.047636945171135
15:14:46:78,-0.95022583,-1.1414185,8.9904785,-0.23579407,0.115478516,-0.002670288,57.15027,-34.80072,-238.20038,9.112325113773306,0.2625666801837775,247.4200163805178,44.434937499998036,26.04763712509586
15:14:46:79,-1.0771179,-1.1127014,9.143707,-0.24751282,0.19750977,0.030349731,57.3753365,-33.6006165,-238.65051499999998,9.273923930996597,0.3181097475425386,247.74298817829282,44.43493749999803,26.047637305020586
15:14:46:80,-1.1513367,-1.1414185,9.179626,-0.18998718,0.23478699,0.07295227,57.600403,-32.400513,-239.10065,9.321692222380289,0.3107122349309171,248.06595997606783,44.434937499998014,26.047637484945316
15:14:46:81,-1.04599,-1.1940918,9.064713,-0.09197998,0.26568604,0.1177063,57.600403,-32.775116499999996,-237.975315,9.202661141175211,0.30480183994092297,247.03158098398143,44.43493749999801,26.04763766487004
15:14:46:82,-0.92388916,-1.2252197,8.815704,0.024124146,0.2869873,0.16030884,57.600403,-33.14972,-236.84998,8.948260809165633,0.3296097828700855,245.99720199189503,44.43493749999799,26.047637844794767
15:14:46:83,-0.77545166,-1.2683105,8.303345,0.14024353,0.29125977,0.19760132,56.4750665,-32.025147000000004,-237.599945,8.435370471439414,0.3788756827681821,246.31639946965777,44.434937499997986,26.047638024719493
15:14:46:84,-0.5456085,-1.2036743,7.7359314,0.23292542,0.28379822,0.2242279,55.34973,-30.900574,-238.34991,7.848003254411831,0.4302020828584571,246.63559694742054,44.43493749999797,26.047638204644223
15:14:46:85,-0.4450531,-1.0887451,7.1253967,0.29257202,0.24650574,0.23168945,55.49977533333333,-30.650329666666664,-238.69984666666667,7.221822227593567,0.44726219153996294,246.97665297349133,44.434937499997964,26.04763838456895
15:14:46:86,-0.43068695,-0.9834060499999999,6.61902615,0.27393341,0.181526185,0.21890258499999998,55.64982066666667,-30.400085333333333,-239.04978333333332,6.705619627906513,0.3977303791562976,247.3177089995621,44.43493749999796,26.047638564493674
15:14:46:87,-0.4163208,-0.878067,6.1126556,0.2552948,0.11654663,0.20611572,55.799866,-30.149841,-239.39972,6.1894170282194585,0.34819856677263233,247.65876502563287,44.43493749999794,26.0476387444184
15:14:46:88,-0.3804016,-0.7846832,5.940277,0.16261292,0.043045044,0.17202759,55.9494,-29.55017,-238.49945,6.003942366343451,0.24060201429974862,246.7499454056503,44.434937499997936,26.04763892434313
15:14:46:89,-0.42350005,-0.746376025,6.14856715,0.04277038999999999,-0.018737792999999996,0.13847351,55.799865,-30.075073000000003,-238.349915,6.208554660531463,0.19683820956037107,246.63560996433483,44.43493749999792,26.047639104267855
15:14:46:90,-0.4665985,-0.70806885,6.3568573,-0.07707214,-0.08052063,0.10491943,55.65033,-30.599976,-238.20038,6.4131669547194745,0.1530744048209935,246.52127452301934,44.434937499997915,26.04763928419258
15:14:46:91,-0.3253479,-0.77511597,6.869217,-0.17720032,-0.09011841,0.087875366,54.9751285,-30.525208,-238.275145,6.920462283407984,0.21735537991654233,246.4336770930887,44.43493749999791,26.047639441626718
15:14:46:92,-0.19606018,-0.7487793,7.3169403,-0.23260498,-0.06347656,0.06762695,54.299927,-30.45044,-238.34991,7.357766331438788,0.2504151647894681,246.3460796631581,44.4349374999979,26.04763959906085
15:14:46:93,-0.04043579,-0.6553955,7.7718353,-0.265625,-0.038986206,0.03567505,54.1496285,-29.624938999999998,-238.050075,7.79952577051062,0.27083071110156054,245.92330652133245,44.434937499997886,26.047639756494988
15:14:46:94,0.055343628,-0.585968,8.044769,-0.27308655,0.015350342,-0.010131836,53.99933,-28.799438,-237.75024,8.066271113565747,0.2737052262766467,245.5005333795068,44.43493749999788,26.047639913929125
15:14:46:95,0.09603882,-0.43992615,8.272232,-0.27095032,0.04411316,-0.036758423,53.775025,-28.125,-236.775205,8.284478301874225,0.27696791954075645,244.42907866893813,44.43493749999787,26.04764007136326
15:14:46:96,-0.06677246,-0.32499695,8.40152,-0.28053284,0.08459473,-0.13796997,53.55072,-27.450562,-235.80017,8.408068737190709,0.3238682684117717,243.35762395836943,44.434937499997865,26.047640228797395
15:14:46:97,-0.25830078,-0.2507782,8.521225,-0.2890625,0.09843445,-0.16673279,53.625488000000004,-28.500366,-236.250305,8.52882667775403,0.3479170779284003,243.93267524911172,44.43493749999786,26.04764038623153
15:14:46:98,-0.68447876,-0.11669922,8.980911,-0.30822754,0.13998413,-0.21998596,53.700256,-29.55017,-236.70044,9.007712932302004,0.40372465327674767,244.50772653985402,44.434937499997844,26.04764054366567
15:14:46:99,-0.9574127,0.05567932,9.335251,-0.3125,0.15489197,-0.23277283,53.849793000000005,-28.424835,-236.55014,9.384383330714808,0.419322027511899,244.2641852643432,44.43493749999784,26.0476407010998
15:14:47:00,-1.3428802,0.14665222,9.756638,-0.30503845,0.15809631,-0.21359253,53.99933,-27.2995,-236.39984,9.849711628683703,0.40455490120108484,244.02064398883243,44.43493749999783,26.04764085853394
15:14:47:01,-1.5080719,0.17778015,10.110977,-0.27095032,0.16767883,-0.16885376,53.849793000000005,-27.2995,-235.80017,10.224370031049963,0.3606131697600753,243.4066310352655,44.43493749999782,26.047641015968075
15:14:47:02,-1.5463867,0.24960327,10.331238,-0.21981812,0.17300415,-0.11239624,53.700256,-27.2995,-235.2005,10.44931061032141,0.30146866597325583,242.79261808169858,44.43493749999781,26.04764117340221
15:14:47:03,-1.4985046,0.44354248,10.529953,-0.16654968,0.1485138,-0.057006836,53.025055,-27.375031,-235.500335,10.645287978725364,0.2303148367979651,242.94440727768523,44.4349374999978,26.047641330836345
15:14:47:04,-1.3740082,0.7116852,10.630508,-0.12606812,0.103759766,0.0005187988,52.349854,-27.450562,-235.80017,10.742536697430003,0.16327746039458124,243.09619647367185,44.434937499997794,26.047641488270482
15:14:47:05,-1.0819092,0.9463196,10.855576,-0.090927124,0.054763794,0.050582886,52.349854,-27.450562,-235.80017,10.950323218707508,0.11758164554161848,243.09619647367185,44.43493749999779,26.047641645704616
15:14:47:06,-0.805381785,1.1139145,11.3056795,-0.066421509,-0.028861998000000007,0.062835693,52.349854,-27.450562,-235.80017,11.393784490354989,0.1295875880591212,243.09619647367185,44.43493749999778,26.047641803138752
15:14:47:07,-0.52885437,1.2815094,11.755783,-0.041915894,-0.11248779,0.0750885,52.349854,-27.450562,-235.80017,11.837245762002471,0.14159353057662394,243.09619647367185,44.434937499997766,26.04764196057289
15:14:47:08,-0.2511139,1.2815094,12.289703,-0.0025024414,-0.14550781,0.043136597,52.349854,-25.950623,-235.04944,12.358888475962171,0.15178784860685304,242.2027689606852,44.43493749999776,26.047642118007026
15:14:47:09,-0.22717285,1.1833496,12.6033325,0.042236328,-0.091171265,-0.014389038,51.8997195,-25.5004885,-235.12497000000002,12.660802260723983,0.10150444019445284,242.13222273288005,44.43493749999775,26.04764227544116
15:14:47:10,-0.34210205,1.0923615,12.71347,0.059280396,-0.0027618408,-0.06765747,51.449585,-25.050354,-235.2005,12.76489744965452,0.08999625748508802,242.06167650507493,44.434937499997744,26.047642432875296
15:14:47:11,-0.5001221,1.0348969,12.735016,0.0635376,0.089920044,-0.10813904,50.7751465,-25.125121999999998,-235.65063500000002,12.786780917369079,0.15432657871813119,242.36579713981186,44.43493749999774,26.047642590309433
15:14:47:12,-0.73236084,0.9774475,12.651215,0.06567383,0.20283508,-0.12730408,50.100708,-25.19989,-236.10077,12.710035286789994,0.24831723744058062,242.6699177745488,44.43493749999772,26.047642747743566
15:14:47:13,-0.9957123,0.95111084,12.49559,0.07739258,0.28059387,-0.113464355,50.175476,-23.625183,-236.025235,12.571230021856922,0.3124046913479363,242.4584201199936,44.434937499997716,26.047642905177703
15:14:47:14,-1.0507812,0.89364624,12.49559,0.08804321,0.29019165,-0.09642029,50.250244,-22.050476,-235.9497,12.571496099535631,0.31821325063628436,242.2469224654384,44.43493749999771,26.04764306261184
15:14:47:15,-0.9909363,0.69493103,12.423767,0.15089417,0.21455383,-0.016525269,50.175476,-22.7249145,-235.874935,12.482582679774389,0.2628221471322007,242.221903455306,44.4349374999977,26.047643220045977
15:14:47:16,-0.7299652,0.4866333,12.222656,0.22227478,0.12080383,0.036743164,50.100708,-23.399353,-235.80017,12.254100573123102,0.2556358802426768,242.1968844451736,44.43493749999769,26.04764337748011
15:14:47:17,-0.4091339,0.34536743,11.791702,0.2861786,-0.0027618408,0.074020386,50.325012,-23.2498165,-235.64987000000002,11.803851289585022,0.29560926305877755,242.08284592233144,44.43493749999768,26.047643534914247
15:14:47:18,-0.20562744,0.36932373,11.176392,0.306427,-0.11781311,0.08255005,50.549316,-23.10028,-235.49957,11.18438289756239,0.33851432166434936,241.96880739948932,44.43493749999767,26.047643692348384
15:14:47:19,0.05055237,0.51297,10.7574005,0.22653198000000002,-0.224334715,0.0367431645,50.325012,-22.875213000000002,-235.49957,10.769742767606516,0.3502616176559984,241.90085990619684,44.434937499997666,26.047643849782517
15:14:47:20,0.3210907,0.66859436,10.67601,0.14663696,-0.33085632,-0.009063721,50.100708,-22.650146,-235.49957,10.701743183984107,0.3620089136476474,241.8329124129044,44.43493749999766,26.047644007216654
15:14:47:21,0.44319153,0.7212677,10.85318,0.07632446,-0.36175537,-0.057006836,48.60000599999999,-22.27478,-235.274505,10.886145412391249,0.3740884257349583,241.27650773429656,44.434937499997645,26.04764416465079
15:14:47:22,0.39291382,0.7068939,11.72467,-0.12394714,-0.3532257,-0.24874878,47.099304,-21.899414,-235.04944,11.752530232452251,0.4494521600862076,240.72010305568875,44.43493749999764,26.047644322084924
15:14:47:23,-0.0021209717,0.36213684,12.27533,-0.2102356,-0.25842285,-0.36061096,46.4996335,-22.6493835,-235.79941000000002,12.280670755227751,0.49093954962052516,241.40750658432665,44.43493749999763,26.04764447951906
15:14:47:24,-0.15534973,0.11791992,12.536301,-0.23153687,-0.18811035,-0.39788818,45.899963,-23.399353,-236.54938,12.537818048159133,0.4973025535126798,242.09491011296456,44.43493749999762,26.047644636953198
15:14:47:25,-0.457016,-0.5740051,12.957672,-0.21875,0.054763794,-0.44688416,46.4996335,-21.749878000000002,-236.54938,12.978428608220103,0.500555779201659,242.06189615384807,44.434937499997616,26.04764479438733
15:14:47:26,-0.6198273,-0.9762268,12.912186,-0.1356659,0.2039032,-0.43197632,47.099304,-20.100403,-236.54938,12.963863310967898,0.4965735518871222,242.02888219473155,44.4349374999976,26.047644951821468
15:14:47:27,-0.7131958,-1.2467651,12.648819,-0.07493591,0.26782227,-0.41174316,46.049499499999996,-20.550537,-236.999515,12.730109722955127,0.496866771602073,242.30782201494281,44.434937499997595,26.047645109255605
15:14:47:28,-0.50491333,-1.52211,11.707901,0.21800232,0.3892517,-0.2540741,44.999695,-21.000671,-237.44965,11.817220576290884,0.5134155682963679,242.58676183515408,44.43493749999759,26.04764526668974
15:14:47:29,-0.3660431,-1.5364685,11.317657,0.28085327,0.3711548,-0.21679688,44.6998595,-20.925140499999998,-237.52517999999998,11.427339277898371,0.513454313459793,242.5989514418287,44.43493749999758,26.047645424123875
15:14:47:30,-0.08352661,-1.4766083,10.45813,0.3799286,0.3093567,-0.16033936,44.400024,-20.84961,-237.60071,10.562188781834331,0.5155152949215567,242.6111410485033,44.434937499997574,26.04764558155801
15:14:47:31,0.24447632,-1.3353577,9.773392,0.42785645,0.23373413,-0.12837219,44.024658,-20.09964,-239.10065,9.867225549446715,0.5041549409644375,243.95172245079831,44.43493749999756,26.04764573899215
15:14:47:32,0.54374695,-1.198883,9.323273,0.42253113,0.15809631,-0.113464355,43.649292,-19.34967,-240.60059,9.415752791245758,0.4651893796189451,245.29230385309333,44.43493749999755,26.047645896426282
15:14:47:33,0.8262634,-1.1127014,9.05513,0.4033661,0.094177246,-0.12197876,43.874359,-19.34967,-240.97519499999999,9.160578307543773,0.4318013225830742,245.69989533027086,44.434937499997545,26.04764605386042
15:14:47:34,0.804718,-1.0648041,8.676849,0.36395264,0.068618774,-0.15501404,44.099426,-19.34967,-241.3498,8.778900124713905,0.401496466865344,246.10748680744837,44.43493749999754,26.047646211294555
15:14:47:35,0.7233124,-1.0743866,8.600235,0.31921387,0.06541443,-0.18377686,43.199666,-19.599914333333334,-241.3498,8.697213890061478,0.374099554562768,245.97113843546035,44.434937499997524,26.047646368728692
15:14:47:36,0.7233124,-1.0289001,8.423065,0.268074035,0.094711305,-0.20082092499999998,42.299906,-19.850158666666665,-241.3498,8.516445281806181,0.35280835903829677,245.83479006347233,44.43493749999752,26.047646526162826
15:14:47:37,0.4982605,-0.91397095,8.166885,0.2169342,0.12400818,-0.21786499,41.400146,-20.100403,-241.3498,8.232959190141122,0.3315171635138255,245.6984416914843,44.43493749999751,26.047646683596962
15:14:47:38,0.45037842,-0.858902,8.073502,0.165802,0.20069885,-0.22105408,42.300415,-19.5755005,-240.29998999999998,8.13154277556293,0.34151901540026863,244.781448960644,44.4349374999975,26.0476468410311
15:14:47:39,0.23728943,-0.74638367,7.925064,0.12319946,0.27207947,-0.20933533,43.200684,-19.050598,-239.25018,7.963669647877691,0.36472815263697617,243.86445622980375,44.434937499997496,26.047646998465233
15:14:47:40,-0.014099121,-0.5452728,7.676071,0.09550476,0.3104248,-0.17738342,42.149353,-18.15033,-240.60059,7.695426382512785,0.3700670119432344,244.93804593361077,44.43493749999748,26.04764715589937
15:14:47:41,-0.09310913,-0.48062134,7.65213,0.09336853,0.31575012,-0.13264465,42.074585,-18.225098000000003,-241.20026000000001,7.667774104618155,0.35497946961479027,245.51990255697365,44.434937499997474,26.047647313333506
15:14:47:42,-0.17449951,-0.3776703,7.247513,0.10934448,0.29551697,-0.0740509,41.999817,-18.299866,-241.79993,7.25944416740437,0.323681990007571,246.1017591803365,44.43493749999747,26.04764747076764
15:14:47:43,-0.20802307,-0.31782532,7.070343,0.13598633,0.26249695,-0.016525269,41.0247805,-18.524933,-241.64963,7.08053929226682,0.2960912278702187,245.80823261323002,44.43493749999746,26.047647628201776
15:14:47:44,-0.17211914,-0.21965027,6.818939,0.16793823,0.20069885,0.04525757,40.049744,-18.75,-241.49933,6.82464653481676,0.2655777195646508,245.5147060461235,44.43493749999745,26.047647785635913
15:14:47:45,-0.14338684,-0.21247864,6.706421,0.1849823,0.1612854,0.07295227,40.425110000000004,-18.374634,-242.2493,6.711318021639448,0.25603410957253897,246.28599111044548,44.43493749999744,26.047647943070046
15:14:47:46,0.03617859,0.03173828,6.2491302,0.22865295,0.05050659,0.12408447,40.800476,-17.999268,-242.99927,6.249315519746445,0.26500951468260814,247.05727617476742,44.43493749999743,26.047648100504183
15:14:47:47,0.11997986,0.17298889,6.0959015,0.23292542,-0.02619934,0.13793945,40.200043,-18.299866,-242.9245,6.099535672538632,0.27197049208492174,246.90823297065472,44.434937499997424,26.04764825793832
15:14:47:48,0.15350342,0.29988098,6.0121,0.20948792,-0.09011841,0.13154602,39.59961,-18.600464,-242.84973,6.021531226533452,0.26326958013544766,246.75918976654202,44.43493749999742,26.047648415372457
15:14:47:49,0.18940735,0.34536743,6.0480194,0.16261292,-0.14337158,0.1219635,39.4500735,-17.9252625,-243.299865,6.060832654736079,0.24874377788172472,247.12950328019883,44.4349374999974,26.04764857280659
15:14:47:50,0.2803955,0.51057434,6.335312,0.09017944,-0.17533875,0.109176636,39.300537,-17.250061,-243.75,6.3620347319415576,0.225378673566406,247.49981679385562,44.434937499997396,26.047648730240727
15:14:47:51,0.32348633,0.5847931,6.579529,-0.0067596436,-0.20410156,0.06976318,39.200338,-17.149861666666666,-243.25002,6.61338251104119,0.2158009287740556,246.9845452543019,44.43493749999739,26.047648887674864
15:14:47:52,0.255249025,0.704505925,6.85007485,-0.0456466668,-0.20356750499999998,0.054847715,39.100139,-17.049662333333334,-242.75003999999998,6.891992814822735,0.2196626126685246,246.46927371474817,44.43493749999738,26.047649045108997
15:14:47:53,0.18701172,0.82421875,7.1206207,-0.08453369,-0.20303345,0.03993225,38.99994,-16.949463,-242.25006,7.170603118604279,0.22352429656299358,245.95400217519446,44.434937499997375,26.047649202543134
15:14:47:54,0.23968506,0.9415283,7.3145447,-0.12927246,-0.21261597,0.034606934,37.049866,-17.999268,-244.50073,7.378786393166981,0.2512261122860696,247.94610944656236,44.43493749999736,26.04764935997727
15:14:47:55,0.3570099,1.180954,7.5898743,-0.15377808,-0.22433472,0.020767212,37.574768000000006,-18.449402,-244.35043000000002,7.689492851197308,0.27277287544808726,247.91102389248,44.43493749999735,26.047649517411408
15:14:47:56,0.36180115,1.5400848,7.781418,-0.18359375,-0.21154785,-0.023986816,38.09967,-18.899536,-244.20013,7.940606233409158,0.2811307973533011,247.87593833839762,44.434937499997346,26.04764967484554
15:14:47:57,0.3378601,1.611908,7.8077545,-0.241119385,-0.20516204999999998,-0.06393432600000001,37.799835,-18.299865500000003,-244.125365,7.979563094550118,0.3273087261247777,247.71220140616123,44.43493749999734,26.047649832279678
15:14:47:58,0.012237549,1.7723236,8.128571,-0.29864502,-0.19877625,-0.103881836,37.5,-17.700195,-244.0506,8.319552103494724,0.3734866548962543,247.54846447392484,44.43493749999733,26.047649989713815
15:14:47:59,-0.1194458,1.7986603,8.34166,-0.3401947,-0.19024658,-0.11985779,37.6503,-16.7251585,-244.65027,8.534209847990248,0.40778926534850146,248.09688179586067,44.43493749999732,26.047650147147948
15:14:47:60,-0.48095703,1.8561096,9.024002,-0.4616394,-0.0975647,-0.13050842,37.8006,-15.750122,-245.24994,9.225457961961704,0.4895531166373536,248.6452991177965,44.43493749999731,26.047650304582085
15:14:47:61,-0.6581421,1.7124634,9.459747,-0.48719788,-0.053894043,-0.12411499,37.400310000000005,-15.950012,-244.64976000000001,9.635999959741644,0.5056390737374639,248.00603749985342,44.434937499997304,26.04765046201622
15:14:47:62,-0.8365096999999999,1.68732455,10.021186499999999,-0.50424194,-0.018737793,-0.10920715,37.00002,-16.149902,-244.04958,10.198167502616183,0.5162724479890409,247.3667758819103,44.4349374999973,26.047650619450355
15:14:47:63,-1.0148773,1.6621857,10.582626,-0.49038696,0.014282227,-0.038894653,36.59973,-16.349792,-243.4494,10.76033504549072,0.4921342769794759,246.72751426396724,44.43493749999728,26.047650776884492
15:14:47:64,-1.11782835,1.6801453,10.998024000000001,-0.39238739,-0.0230026245,0.0101089485,36.824798,-15.674591,-243.374635,11.181892790821927,0.39919540326661174,246.6444338548656,44.434937499997275,26.04765093431863
15:14:47:65,-1.2207794,1.6981049,11.413422,-0.29438782,-0.060287476,0.05911255,37.049866,-14.99939,-243.29987,11.603450536153131,0.3062565295537476,246.56135344576398,44.43493749999727,26.047651091752762
15:14:47:66,-1.314148,1.6981049,11.461304,-0.24005127,-0.0975647,0.087875366,34.950256,-14.399719,-245.39948,11.660704721316119,0.273615721157131,248.29373146741924,44.43493749999726,26.0476512491869
15:14:47:67,-1.4027252,1.50177,11.530731,-0.13352966,-0.2669525,0.1816101,35.774993,-14.025116,-245.549775,11.712416851955707,0.34939381187705026,248.53979272238627,44.434937499997254,26.047651406621036
15:14:47:68,-1.3093567,1.42276,11.774948,-0.12181091,-0.3670807,0.2519226,36.59973,-13.650513,-245.70007,11.932646872682476,0.4615746250589151,248.78585397735333,44.43493749999724,26.047651564055172
15:14:47:69,-1.065155,1.259964,12.081406,-0.13246155,-0.4139557,0.321167,35.324859000000004,-13.800049000000001,-245.77484,12.193540724176756,0.5404198605527858,248.6869567544145,44.43493749999723,26.047651721489306
15:14:47:70,-0.7993927,1.1594086,12.497986,-0.14311218,-0.42034912,0.3531189,34.049988,-13.949585,-245.84961,12.577078796237354,0.5673336199154222,248.58805953147564,44.434937499997226,26.047651878923443
15:14:47:71,-0.67729187,1.1570129,12.696716,-0.16654968,-0.39263916,0.3957367,33.975218999999996,-13.649750000000001,-245.624545,12.767301998174498,0.5818177047843233,248.3387450148972,44.43493749999722,26.04765203635758
15:14:47:72,-0.5719452,1.0085754,13.213852,-0.19638062,-0.28399658,0.4244995,33.90045,-13.349915,-245.39948,13.264623263673649,0.5471921334079382,248.08943049831876,44.43493749999721,26.047652193791713
15:14:47:73,-0.5743408,0.90322876,13.632843,-0.18359375,-0.15722656,0.4319458,33.975218999999996,-13.424683,-245.99991,13.674797907467765,0.49497881807824473,248.69759783538072,44.4349374999972,26.04765235122585
15:14:47:74,-0.5719452,0.6063385,13.829163,-0.1356659,0.029205322,0.4319458,34.049988,-13.499451,-246.60034,13.854259885282731,0.4536908213680035,249.30576517244268,44.43493749999719,26.047652508659986
15:14:47:75,-0.6318054,0.23284912,13.651993,-0.041915894,0.25717163,0.44580078,33.85009766666666,-13.699849666666667,-247.05047333333331,13.66858842924912,0.5163647208081557,249.73515588711567,44.43493749999718,26.047652666094123
15:14:47:76,-0.67609405,0.1083526605,13.023513999999999,0.06567382799999999,0.389793395,0.44953155499999997,33.650207333333334,-13.900248333333334,-247.50060666666667,13.0422750560079,0.6146878291396419,250.16454660178863,44.434937499997176,26.047652823528257
15:14:47:77,-0.7203827,-0.016143799,12.395035,0.17326355,0.52241516,0.45326233,33.450317,-14.100647,-247.95074,12.415961682766682,0.7130109374711282,250.59393731646162,44.43493749999716,26.047652980962393
15:14:47:78,-0.9574127,0.09637451,11.72467,0.2276001,0.4350586,0.4511261,32.55005,-13.200378,-247.34955,11.764090008717165,0.6667777358724419,249.83105415369778,44.434937499997154,26.04765313839653
15:14:47:79,-1.16929625,0.11074066,11.3571545,0.2062912,0.1778030425,0.45858002,32.025147,-12.599945,-248.474885,11.420444473161762,0.5872189226406623,250.8485682975171,44.43493749999715,26.047653295830663
15:14:47:80,-1.3811798,0.12510681,10.989639,0.1849823,-0.079452515,0.46603394,31.500244,-11.999512,-249.60022,11.07679893760636,0.5076601094088827,251.86608244133643,44.43493749999714,26.0476534532648
15:14:47:81,-1.3716125,-0.10952759,11.1835785,0.11148071,-0.33618164,0.48735046,31.800333666666663,-12.199910666666666,-249.40033,11.267907756490985,0.6024587244263339,251.71594884789204,44.43493749999713,26.047653610698937
15:14:47:82,-1.2710571,-0.53089905,11.571442,0.035842896,-0.4554901,0.5256958,32.10042333333333,-12.400309333333333,-249.20044000000001,11.653141632714986,0.6964998338329428,251.56581525444767,44.43493749999712,26.04765376813307
15:14:47:83,-1.1585236,-0.7320099,11.76297,0.007080078,-0.4554901,0.5523224,32.400513,-12.600708,-249.00055,11.84252838908799,0.7159478977162067,251.41568166100328,44.43493749999711,26.047653925567207
15:14:47:84,-0.6294098,-1.0695953,12.11731,-0.029129028,-0.33831787,0.6087799,31.950378,-12.600708,-250.95062,12.18069753496154,0.6970799438210596,253.28998830358168,44.434937499997105,26.047654083001344
15:14:47:85,-0.40196228,-1.1533966,12.0383,-0.004638672,-0.23286438,0.61091614,31.600443333333335,-12.450663333333333,-251.40024666666665,12.10010596157878,0.6538087387479672,253.6849882709661,44.4349374999971,26.047654240435477
15:14:47:86,-0.09550476,-1.1390381,11.681564,0.017730713,-0.19024658,0.5991974,31.250508666666665,-12.300618666666667,-251.84987333333333,11.737353468245313,0.628924211294131,254.07998823835052,44.43493749999708,26.047654397869614
15:14:47:87,0.06251526,-1.0839691,11.145264,0.07418823,-0.12313843,0.5225067,30.900574,-12.150574,-252.2995,11.19802691536253,0.5419227047820453,254.47498820573495,44.434937499997076,26.04765455530375
15:14:47:88,0.16067505,-1.1031189,10.869934,0.08164978,-0.11993408,0.48414612,31.725312,-13.2003785,-251.85012999999998,10.926946185626877,0.5054189703904566,254.187204223759,44.43493749999707,26.047654712737888
15:14:47:89,0.27320862,-1.1462097,10.37912,0.070999146,-0.13911438,0.3968048,32.55005,-14.250183,-251.40076,10.44579205234416,0.42643608988751613,253.8994202417831,44.43493749999706,26.04765487017202
15:14:47:90,0.14631653,-1.2012787,9.890701,0.006011963,-0.18278503,0.24127197,30.749512,-12.750244,-253.19977,9.964459107920808,0.30275183632621483,255.3785909945283,44.43493749999705,26.047655027606158
15:14:47:91,-0.021270752,-1.2467651,9.950562,-0.060028076,-0.24031067,0.12835693,30.899811,-12.975311000000001,-253.80020000000002,10.028387695702268,0.2789768619494018,256.00340214064136,44.43493749999704,26.047655185040295
15:14:47:92,-0.3756256,-1.3305664,10.067871,-0.11541748,-0.26161194,0.028213501,31.05011,-13.200378,-254.40063,10.162358388131434,0.2873290856818902,256.6282132867544,44.434937499997034,26.047655342474428
15:14:47:93,-0.78503415,-1.46583555,10.154068,-0.153770445,-0.208885195,-0.018119812000000002,30.2253725,-12.900542999999999,-254.700465,10.29781740497728,0.2715815779640047,256.81345312089286,44.43493749999703,26.047655499908565
15:14:47:94,-1.1944427,-1.6011047,10.240265,-0.19212341,-0.15615845,-0.064453125,29.400635,-12.600708,-255.0003,10.433276421823127,0.25583407024611915,256.99869295503134,44.43493749999702,26.047655657342702
15:14:47:95,-1.3500671,-1.6370239,10.247437,-0.22940063,-0.04750061,-0.08149719,28.900655333333333,-12.450663333333333,-255.45043333333334,10.46482171337107,0.24803779746777527,257.38268417665756,44.434937499997005,26.04765581477684
15:14:47:96,-1.9174805,-1.6226654,9.967316,-0.23153687,0.092041016,-0.06340027,28.400675666666668,-12.300618666666667,-255.9005666666667,10.278967006080592,0.25710010702405794,257.7666753982838,44.434937499997,26.047655972210972
15:14:47:97,-2.1593018,-1.6226654,9.471725,-0.19319153,0.30297852,0.027145386,27.900696,-12.150574,-256.3507,9.849324938261779,0.360355134313666,258.15066661991,44.43493749999699,26.04765612964511
15:14:47:98,-2.2095795000000003,-1.5268936000000002,8.940207999999998,-0.146850585,0.37541199,0.123558043,27.975464000000002,-12.450409,-255.37566500000003,9.336610692543877,0.43466472431512226,257.2052134918531,44.434937499996984,26.047656287079246
15:14:47:99,-2.2598572,-1.4311218,8.408691,-0.10050964,0.44784546,0.2199707,28.050232,-12.750244,-254.40063,8.823896446825975,0.5089743143165785,256.25976036379626,44.43493749999697,26.04765644451338
15:14:48:00,-2.1233826,-1.3808441,8.233917,-0.07067871,0.4595642,0.2753601,28.500366,-13.050079499999999,-254.850005,8.61468938832832,0.5403868231562592,256.77097500499656,44.43493749999696,26.047656601947516
15:14:48:01,-1.658905,-1.2371979,7.453415,0.04862976,0.46595764,0.41171265,28.9505,-13.349915,-255.29938,7.7353745613909615,0.6236895718240363,257.2821896461969,44.434937499996956,26.047656759381653
15:14:48:02,-1.2638702,-1.0815735,6.9626007,0.12106323,0.4361267,0.4713745,28.800201,-13.500214,-255.14984,7.158559745227443,0.6534957714944856,257.1248548765219,44.43493749999695,26.047656916815786
15:14:48:03,-0.96698,-0.86369324,6.371231,0.165802,0.36795044,0.50546265,28.649902,-13.650513,-255.0003,6.501815191820104,0.6468155224213594,256.9675201068469,44.43493749999694,26.047657074249923
15:14:48:04,-0.8137512,-0.64582825,5.8397217,0.16687012,0.2742157,0.51290894,28.799438,-13.499451,-255.90057,5.931410850501792,0.6050747621635097,257.8696270070249,44.43493749999693,26.04765723168406
15:14:48:05,-0.8137512,-0.5165405,5.5260773,0.1146698,0.13679504,0.5001373,27.8244015,-13.874817,-257.550045,5.6095040270256495,0.5310361238672295,259.4226934815655,44.43493749999692,26.047657389118193
15:14:48:06,-0.92388916,-0.48780823,5.5164948,0.026260376,-0.00062561035,0.47669983,26.849365,-14.250183,-259.19952,5.6145563429044225,0.47742300599992066,260.9757599561061,44.43493749999691,26.04765754655233
15:14:48:07,-1.0507812,-0.56921387,5.7295837,-0.08558655,-0.095443726,0.4713745,27.4497985,-14.099884,-258.224485,5.852886034716506,0.488496142895638,260.0628447303428,44.434937499996906,26.047657703986467
15:14:48:08,-1.022049,-0.66018677,6.390381,-0.1867981,-0.15083313,0.4777527,28.050232,-13.949585,-257.24945,6.50518255353722,0.5346885127123051,259.1499295045796,44.43493749999689,26.047657861420603
15:14:48:09,-0.66411593,-0.51174927,7.242713999999999,-0.21981811499999998,-0.16521454000000002,0.477226265,27.825165,-13.724518,-257.849885,7.307080434424211,0.5516963941889497,259.7100565751849,44.434937499996884,26.047658018854737
15:14:48:10,-0.30618286,-0.36331177,8.095047,-0.25283813,-0.17959595,0.47669983,27.600098,-13.499451,-258.45032,8.108978315311202,0.5687042756655943,260.27018364579027,44.43493749999688,26.047658176288873
15:14:48:11,-0.14578247,-0.23162842,8.353622,-0.23046875,-0.16362,0.46391296,27.100118333333334,-13.249715333333334,-258.30027333333334,8.358104137446182,0.54323345219392,260.05688089567684,44.43493749999687,26.04765833372301
15:14:48:12,0.08885193,0.17778015,8.889923,-0.116485596,-0.13804626,0.3765564,26.600138666666666,-12.999979666666666,-258.15022666666664,8.892144364163672,0.41763666787822024,259.8435781455634,44.43493749999686,26.047658491157144
15:14:48:13,0.007446289,0.3381958,8.954575,-0.04724121,-0.14125061,0.30625916,26.100159,-12.750244,-258.00018,8.960962296370994,0.3405556339741596,259.63027539545,44.43493749999685,26.04765864859128
15:14:48:14,-0.05479431,0.4650879,8.97612,-0.009963989,-0.14657593,0.23913574,26.100159,-12.750244,-258.45032,8.988327954938827,0.28065937803234836,260.077594056057,44.43493749999684,26.047658806025417
15:14:48:15,-0.13380432,0.4794464,8.921051,-0.00036621094,-0.09437561,0.18481445,26.300049333333334,-13.050333666666667,-259.00014666666664,8.934927162049204,0.2075169169058927,260.6592942244028,44.434937499996835,26.047658963459554
15:14:48:16,-0.18408203,0.4794464,8.904297,-0.008895874,-0.058151245,0.16137695,26.499939666666666,-13.350423333333334,-259.54997333333336,8.919095251674962,0.17176502513776312,261.2409943927485,44.43493749999683,26.047659120893687
15:14:48:17,-0.24873352,0.5776062,9.110199,-0.057891846,0.05050659,0.10066223,26.69983,-13.650513,-260.0998,9.131879494707047,0.1266304308422297,261.8226945610943,44.43493749999681,26.047659278327824
15:14:48:18,-0.2678833,0.65901184,9.462143,-0.071746826,0.1101532,0.06123352,25.799560999999997,-13.1256105,-260.6247,9.488846516839024,0.14502026921401256,262.2295354385119,44.434937499996806,26.04765943576196
15:14:48:19,-0.379211425,0.619506835,9.5926285,-0.058433532999999996,0.1591568,0.035667419,24.899292,-12.600708,-261.1496,9.620794271527352,0.17912700101560358,262.6363763159295,44.4349374999968,26.047659593196094
15:14:48:20,-0.49053955,0.58000183,9.723114,-0.04512024,0.2081604,0.010101318,24.899292,-13.650513,-259.3506,9.752742026215682,0.21323373281719457,260.9004503016896,44.43493749999679,26.04765975063023
15:14:48:21,-0.5839081,0.51297,9.778183,-0.036590576,0.199646,0.011169434,24.899292,-13.550313666666666,-259.70053333333334,9.809023889849316,0.20327850802259478,261.2431489206665,44.434937499996785,26.047659908064368
15:14:48:22,-0.5025177,0.536911,9.943375,-0.0376586915,0.14265442,0.019691467499999997,24.899292,-13.450114333333334,-260.05046666666664,9.970531773750048,0.1507154431867974,261.5858475396434,44.43493749999677,26.0476600654985
15:14:48:23,-0.39717102,0.5752106,10.175613,-0.038726807,0.08566284,0.028213501,24.899292,-13.349915,-260.4004,10.19959371638151,0.09815237835099999,261.9285461586203,44.434937499996764,26.047660222932638
15:14:48:24,-0.18887329,0.6781616,10.6353,-0.046173096,-0.009155273,0.025024414,25.049591,-13.874817,-261.000065,10.65857318619101,0.05331036591483068,262.56670951131923,44.43493749999676,26.047660380366775
15:14:48:25,0.1151886,0.69732666,11.200333,-0.028076172,-0.118881226,0.010101318,25.19989,-14.399719,-261.59973,11.222610756646857,0.12256856838020826,263.20487286401817,44.43493749999675,26.04766053780091
15:14:48:26,0.25645447,0.7068939,11.478058,0.025192258999999998,-0.14497375299999998,-0.039428711,24.900055000000002,-13.4246825,-261.8248,11.50266418410988,0.1653676755773736,263.350585258274,44.434937499996735,26.047660695235045
15:14:48:27,0.5413666,0.4938202,12.076614,0.07846069,-0.17106628,-0.08895874,24.60022,-12.449646,-262.04987,12.09882398791385,0.20816678277453898,263.49629765252985,44.43493749999673,26.047660852669182
15:14:48:28,0.54374695,0.4172058,12.213089,0.106155396,-0.16894531,-0.115600586,24.60022,-13.3499145,-262.04987,12.23230413074777,0.23059701072315814,263.54190143483777,44.43493749999672,26.04766101010332
15:14:48:29,0.4695282,0.3214264,12.248993,0.15835571,-0.11141968,-0.18696594,24.60022,-14.250183,-262.04987,12.262202134007627,0.26916006148942323,263.58750521714563,44.434937499996714,26.047661167537452
15:14:48:30,0.34024048,0.24241638,12.141251,0.14982605,-0.06135559,-0.22424316,23.9250185,-13.950348,-262.5,12.148436324503823,0.27658154039927574,263.9581023428275,44.43493749999671,26.04766132497159
15:14:48:31,0.22772217,0.24003601,12.153229,0.12319946,-0.042175293,-0.25621033,23.249817,-13.650513,-262.95013,12.157732099336915,0.2874031932366729,264.3286994685094,44.43493749999669,26.047661482405726
15:14:48:32,0.17744446,0.21369934,12.205902,0.10722351,-0.041107178,-0.2689972,23.474884,-13.650513,-263.549805,12.209062108856074,0.29248277690777585,264.94515780420505,44.434937499996686,26.04766163983986
15:14:48:33,0.07928467,-0.15501404,12.105347,0.07846069,0.0068206787,-0.27964783,23.699951,-13.650513,-264.14948,12.106599084875286,0.2905262644872467,265.5616161399007,44.43493749999668,26.047661797273996
15:14:48:34,0.37376404,-0.4925995,11.858734,0.068862915,0.043045044,-0.2732544,23.0247495,-13.950348,-264.22501,11.874844247726088,0.28506656063912367,265.5939714382978,44.43493749999667,26.047661954708133
15:14:48:35,0.562912,-0.6218872,11.554672,0.052886963,0.039855957,-0.29029846,22.349548,-14.250183,-264.30054,11.585079138135047,0.297756148621856,265.6263267366949,44.43493749999666,26.04766211214227
15:14:48:36,0.55332947,-0.53808594,11.475662,0.031585693,-0.022994995,-0.3286438,22.549947,-14.700317333333333,-264.25018666666665,11.501588078149911,0.33095796270188194,265.61861965277257,44.43493749999665,26.047662269576403
15:14:48:37,0.6060028,-0.49978638,11.406235,0.018798828,-0.06454468,-0.3488922,22.750346,-15.150451666666667,-264.19983333333334,11.433250749216793,0.35530997575541834,265.6109125688502,44.43493749999664,26.04766242701054
15:14:48:38,0.52220154,-0.50216675,11.135696,-0.04298401,-0.18066406,-0.4223938,22.950745,-15.600586,-264.14948,11.159237935343072,0.4614148350127071,265.60320548492786,44.434937499996636,26.047662584444677
15:14:48:39,0.42164612,-0.49499512,11.10936,-0.12927246,-0.2381897,-0.49057007,23.10028,-16.499329,-265.04974,11.12837298210906,0.5604504399858622,266.56559318035823,44.43493749999662,26.04766274187881
15:14:48:40,0.11039734,-0.53089905,11.466095,-0.23579407,-0.24456787,-0.553421,23.10028,-16.499329,-265.04974,11.478910049433917,0.6493743833294487,266.56559318035823,44.434937499996614,26.047662899312947
15:14:48:41,-0.19845581,-0.72483826,11.90184,-0.31356812,-0.16362,-0.58644104,23.10028,-16.499329,-265.04974,11.925542779986268,0.6848427291551075,266.56559318035823,44.43493749999661,26.047663056747083
15:14:48:42,-0.41153717,-1.03967283,12.166397,-0.30557250999999996,-0.03152465999999998,-0.5725936899999999,21.6003415,-16.499329,-264.900205,12.222832411157187,0.6629147130080117,266.2951750777296,44.4349374999966,26.047663214181217
15:14:48:43,-0.62461853,-1.3545074,12.430954,-0.2975769,0.10057068,-0.55874634,20.100403,-16.499329,-264.75067,12.520122042328106,0.6409866968609161,266.024756975101,44.43493749999659,26.047663371615354
15:14:48:44,-0.7084198,-1.6346283,12.186752,-0.1953125,0.23266602,-0.48310852,20.60038266666667,-16.899617666666668,-265.2002966666667,12.316281606138151,0.5706787989889591,266.53680899733143,44.43493749999658,26.04766352904949
15:14:48:45,-0.47138977000000004,-1.6609649499999999,11.527145,-0.06428528,0.26675416,-0.39362335,21.100362333333333,-17.299906333333332,-265.64992333333333,11.65826110535655,0.5018230065863134,267.0488610195618,44.43493749999657,26.047663686483624
15:14:48:46,-0.23435974,-1.6873016,10.867538,0.06674194,0.3008423,-0.30413818,21.600342,-17.700195,-266.09955,11.000240604574948,0.4329672141836677,267.5609130417922,44.434937499996565,26.04766384391776
15:14:48:47,0.12956238,-1.4837952,10.113373,0.15408325,0.20709229,-0.2540741,20.700073,-17.399597,-266.40015,10.222462914727707,0.3621912654921659,267.7690775985723,44.43493749999656,26.047664001351897
15:14:48:48,0.37376404,-1.2754974,9.519608,0.1849823,0.07180786,-0.23384094,20.7748415,-18.2250975,-265.724945,9.611947235012678,0.3066861674271489,267.15962667711995,44.43493749999654,26.047664158786034
15:14:48:49,0.7520447,-1.0911407,9.215546,0.17112732,-0.08584595,-0.23277283,20.84961,-19.050598,-265.04974,9.31034088184265,0.30139223143271926,266.5501757556676,44.434937499996536,26.047664316220168
15:14:48:50,0.96273804,-0.9259491,9.177231,0.12852478,-0.22540283,-0.26046753,20.09964,-18.3753965,-265.57464500000003,9.273932019203874,0.36765253845221607,266.96940071718893,44.43493749999653,26.047664473654304
15:14:48:51,1.120758,-0.8900299,9.359192,0.0869751,-0.32234192,-0.30947876,19.34967,-17.700195,-266.09955,9.467984294997644,0.4552428849531138,267.3886256787103,44.43493749999653,26.04766451428247
15:14:48:52,1.2021637,-0.9187622,9.615372,0.053955078,-0.3447113,-0.36593628,19.950103499999997,-18.75,-266.09955,9.733688932780343,0.5056148650998252,267.5069872757,44.43493749999652,26.047664554910632
15:14:48:53,1.1734314,-0.9690399,9.799728,0.040100098,-0.30848694,-0.4234619,20.550537,-19.799805,-266.09955,9.917189544033228,0.525444755194857,267.62534887268976,44.43493749999652,26.047664595538798
15:14:48:54,1.0058289,-0.961853,9.900284,0.045440674,-0.23712158,-0.47564697,20.2499385,-19.574737499999998,-265.499875,9.99762353013656,0.5334149778788102,266.9897199956158,44.43493749999652,26.04766463616696
15:14:48:55,0.780777,-0.8708801,9.861969,0.068862915,-0.14762878,-0.50868225,19.94934,-19.34967,-264.9002,9.931086417369754,0.5341291877548427,266.3540911185418,44.434937499996515,26.047664676795126
15:14:48:56,0.6634674,-0.85173035,9.656067,0.08911133,-0.09863281,-0.522522,19.274901999999997,-20.549774,-265.499875,9.716237105405718,0.5391646323961402,266.9940894701949,44.434937499996515,26.047664717423288
15:14:48:57,0.42404175,-0.8972168,9.299332,0.165802,0.056900024,-0.5321045,18.600464,-21.749878,-266.09955,9.352132646523428,0.5602348747226029,267.6340878218481,44.434937499996515,26.047664758051454
15:14:48:58,0.19659424,-0.9115753,8.842041,0.2169342,0.13252258,-0.51400757,18.825530999999998,-21.900177,-266.09955,8.891080241930801,0.5734339223980399,267.6622149913432,44.43493749999651,26.047664798679616
15:14:48:59,0.08406067,-0.85173035,8.2387085,0.26168823,0.17514038,-0.47459412,19.050598,-22.050476,-266.09955,8.28304464151463,0.5695563722456731,267.6903421608383,44.43493749999651,26.04766483930778
15:14:48:60,0.03138733,-0.71525574,7.6904297,0.29364014,0.18579102,-0.41918945,19.275665,-22.350310999999998,-266.024775,7.72368337703777,0.5444838197074019,267.65726896618315,44.43493749999651,26.047664879935944
15:14:48:61,0.11997986,-0.6147003,7.2666626,0.3149414,0.13998413,-0.36698914,19.500732,-22.650146,-265.95,7.293602468455795,0.503452749484752,267.624195771528,44.43493749999651,26.04766492056411
15:14:48:62,0.18701172,-0.4638672,6.8117676,0.31921387,0.09950256,-0.34994507,19.425201,-22.9499815,-266.6252,6.83010424510951,0.48400393207517994,268.31532048637905,44.4349374999965,26.04766496119227
15:14:48:63,0.27799988,-0.33457947,6.4478455,0.3053589,-0.011276245,-0.32331848,19.34967,-23.249817,-267.3004,6.462502529739988,0.44486632938447973,269.00644520123006,44.4349374999965,26.047665001820437
15:14:48:64,0.3857422,-0.20529175,6.2946167,0.26487732,-0.09223938,-0.3286438,19.34967,-24.1500855,-266.55044,6.309765538227057,0.43205884454736815,268.3425153483584,44.4349374999965,26.0476650424486
15:14:48:65,0.5461426,-0.17416382,6.2491302,0.20735168,-0.15934753,-0.34568787,19.34967,-25.050354,-265.80048,6.275367163145419,0.43345871542865555,267.67858549548674,44.434937499996494,26.047665083076765
15:14:48:66,0.49346924,-0.12388611,6.3568573,0.13491821,-0.19238281,-0.37338257,18.674469000000002,-25.125121999999998,-266.40015,6.377185460031752,0.44116732942604114,268.23415126601066,44.434937499996494,26.04766512370493
15:14:48:67,0.48390198,-0.12388611,6.636978,0.059280396,-0.21794128,-0.3989563,17.999268,-25.19989,-266.99982,6.655748332605647,0.45845250156111617,268.78971703653457,44.434937499996494,26.047665164333093
15:14:48:68,0.46713257,-0.061645508,6.8955536,-0.0110321045,-0.21261597,-0.41386414,18.224335,-25.049591,-266.69998499999997,6.91163312517992,0.46541463707825026,268.4931387983303,44.43493749999649,26.04766520496126
15:14:48:69,0.37615967,0.010192871,7.1637115,-0.06642151,-0.1763916,-0.43730164,18.449402,-24.899292,-266.40015,7.173587836444605,0.4761917028759843,268.19656056012604,44.43493749999649,26.04766524558942
15:14:48:70,0.31152344,0.12510681,7.541992,-0.11541748,-0.16255188,-0.45755005,18.0747985,-24.899292,-266.40015,7.549459708856111,0.4990955385856372,268.1713122115087,44.43493749999649,26.047665286217587
15:14:48:71,-0.07873535,0.24720764,7.9059143,-0.14205933,-0.18598938,-0.47459412,17.700195,-24.899292,-266.40015,7.91017014934309,0.5291620559444977,268.1460638628913,44.43493749999648,26.04766532684575
15:14:48:72,-0.39956665,0.18017578,8.188431,-0.14311218,-0.2232666,-0.46925354,17.549896,-25.19989,-266.625215,8.20015359985725,0.5390064522270991,268.38804672882316,44.43493749999648,26.047665367473915
15:14:48:73,-0.69644165,0.165802,8.296173,-0.1441803,-0.25309753,-0.43197632,17.399597,-25.500488,-266.85028,8.327004726850328,0.5210085024651069,268.630029594755,44.43493749999648,26.047665408102077
15:14:48:74,-0.8472748,0.20411682,8.3967285,-0.16868591,-0.2690735,-0.36912537,17.549896,-25.7255555,-266.92505,8.441835568502515,0.4869384185011643,268.7356564573906,44.43493749999647,26.047665448730243
15:14:48:75,-0.9167023,0.29508972,8.650513,-0.18466187,-0.27120972,-0.3286438,17.700195,-25.950623,-266.99982,8.703952907319982,0.46439365384640574,268.84128332002615,44.43493749999647,26.047665489358405
15:14:48:76,-0.73236084,0.44354248,9.009644,-0.23579407,-0.24884033,-0.21679688,17.324829,-27.0751955,-267.224885,9.050235761474175,0.4056121798706348,269.15369900512485,44.43493749999647,26.04766552998657
15:14:48:77,-0.56715393,0.66619873,9.340042,-0.25283813,-0.20622253,-0.1720581,16.949463,-28.199768,-267.44995,9.380931131286067,0.36886154805984833,269.4661146902235,44.43493749999647,26.047665570614733
15:14:48:78,-0.31097412,0.912796,9.481293,-0.26029968,-0.15402222,-0.15713501,16.574859500000002,-27.0751955,-267.224885,9.530205579775012,0.34083746717391694,269.10640571504155,44.434937499996465,26.0476656112429
15:14:48:79,-0.28463745,0.97265625,9.526794,-0.28053284,-0.1252594,-0.14755249,16.200256,-25.950623,-266.99982,9.580547091739728,0.3408230169927285,268.7466967398596,44.434937499996465,26.047665651871064
15:14:48:80,-0.13380432,1.0899658,9.826065,-0.31036377,-0.12313843,-0.14541626,16.3497925,-27.825165,-267.224885,9.887238361921154,0.364190377884789,269.17299247956623,44.434937499996465,26.047665692499226
15:14:48:81,-0.26309204,1.2503815,10.343216,-0.3199463,-0.12846375,-0.14755249,16.499329,-29.699707,-267.44995,10.421841897654637,0.3750204091152275,269.5992882192729,44.43493749999646,26.047665733127392
15:14:48:82,-0.6653137,1.1665802,10.6736145,-0.31143188,-0.15402222,-0.13264465,16.4245605,-29.1000365,-267.150115,10.757769200770667,0.37189684498216075,269.2323954173587,44.43493749999646,26.047665773755554
15:14:48:83,-0.7850342,0.96546936,11.102173,-0.29013062,-0.2190094,-0.092163086,16.349792,-28.500366,-266.85028,11.17168989464877,0.3750132375943385,268.86550261544454,44.43493749999646,26.04766581438372
15:14:48:84,-0.67729187,0.87210083,11.631287,-0.24751282,-0.29997253,-0.05380249,16.124725,-28.649901999999997,-267.22488999999996,11.683583414827138,0.3926077212041982,269.2397421816035,44.43493749999645,26.047665855011882
15:14:48:85,-0.6437683,0.72843933,12.086182,-0.1867981,-0.33406067,-0.019714355,15.899658,-28.799438,-267.5995,12.125215743181634,0.3832475925528103,269.61398174776247,44.43493749999645,26.047665895640048
15:14:48:86,-0.5503998,0.6997223,12.4142,-0.11541748,-0.35961914,0.020767212,15.449524,-28.499603,-267.29966,12.446080221377224,0.37825705233100804,269.2587596384259,44.43493749999645,26.04766593626821
15:14:48:87,-0.4665985,0.6135254,12.766144,-0.050445557,-0.3755951,0.064437866,14.99939,-28.199768,-266.99982,12.789392487736993,0.3844069093287531,268.90353752908925,44.434937499996444,26.047665976896376
15:14:48:88,-0.36364746,0.4650879,13.149216,0.020935059,-0.339386,0.09638977,15.374756,-28.575134,-267.375185,13.162462825951184,0.3534290897082276,269.3374192416871,44.434937499996444,26.047666017524538
15:14:48:89,-0.318161,0.29988098,13.443695,0.09762573,-0.25202942,0.11343384,15.750122,-28.9505,-267.75055,13.450802588585997,0.29311575829476466,269.7713009542849,44.434937499996444,26.047666058152704
15:14:48:90,-0.2511139,0.11074829,13.34314,0.16900635,-0.13272095,0.12942505,15.450287,-28.500366,-268.050385,13.34596225208625,0.2508562147460722,270.0042949022426,44.43493749999644,26.047666098780866
15:14:48:91,-0.23196411,0.026947021,13.24498,0.2627411,0.11442566,0.14433289,15.150452,-28.050232,-268.35022,13.247038487551428,0.3208708469640047,270.2372888502002,44.43493749999644,26.04766613940903
15:14:48:92,-0.028457642,-0.10713196,12.533905,0.2861786,0.2081604,0.145401,14.9253845,-28.350067000000003,-267.900085,12.534395144691532,0.3825838392132109,269.80939388428953,44.43493749999644,26.047666180037194
15:14:48:93,0.026611328,-0.19570923,12.007187,0.32559204,0.38180542,0.13687134,14.700317,-28.649902,-267.44995,12.008811344943933,0.5201147171212651,269.38149891837895,44.43493749999644,26.04766622066536
15:14:48:94,0.012237549,-0.29388428,11.70311,0.3522339,0.49684143,0.12835693,14.550272333333334,-29.149881666666666,-267.70019333333335,11.706805772700625,0.6224111409291126,269.67631696366874,44.43493749999643,26.047666261293525
15:14:48:95,-0.15296172550000003,-0.35852814,11.3152545,0.34637452,0.50909424,0.13155365000000002,14.400227666666666,-29.649861333333334,-267.95043666666663,11.32351142889099,0.6297612835384467,269.9711350089585,44.43493749999643,26.047666301921687
15:14:48:96,-0.318161,-0.423172,10.927399,0.34051514,0.52134705,0.13475037,14.250183,-30.149841,-268.20068,10.940217085081356,0.6371114261477807,270.2659530542483,44.43493749999643,26.047666342549853
15:14:48:97,-0.6581421,-0.40400696,10.807678,0.30110168,0.43400574,0.13368225,14.8498535,-29.849243,-268.35022,10.835233103131877,0.5448799390845954,270.4132689619592,44.43493749999642,26.047666383178015
15:14:48:98,-0.82333374,-0.43753052,10.860352,0.23825073,0.3019104,0.14752197,15.97518925,-30.5999755,-268.19992,10.900300774164807,0.4119175058265596,270.41563346913983,44.43493749999642,26.04766642380618
15:14:48:99,-0.92149353,-0.59794617,10.946548,0.1807251,0.15383911,0.17095947,17.100525,-31.350708,-268.04962,11.001527305985906,0.29249816053828953,270.4179979763205,44.43493749999642,26.047666464434343
15:14:49:00,-0.8903656,-0.90919495,11.281738,0.11999512,0.008956909,0.19439697,16.5000915,-30.975342,-268.72482,11.353281404924871,0.2286246639971934,271.0080494558623,44.434937499996416,26.04766650506251
15:14:49:01,-0.85206604,-1.0935364,11.674393,0.070999146,-0.093307495,0.23062134,15.899658,-30.599976,-269.40002,11.756414857986904,0.2587148426729706,271.59810093540403,44.434937499996416,26.04766654569067
15:14:49:02,-0.7203827,-1.1845245,11.86113,0.05821228,-0.13058472,0.2977295,15.525055,-31.349945500000004,-268.87512,11.941878177341264,0.330278509459103,271.14285464142466,44.434937499996416,26.047666586318837
15:14:49:03,-0.32055664,-1.3760529,12.169983,0.13703918,-0.12846375,0.39785767,15.150452,-32.099915,-268.35022,12.251724954606821,0.4399697688443648,270.6876083474453,44.43493749999641,26.047666626947
15:14:49:04,-0.10267639,-1.4598541,11.865921,0.24464417,-0.12739563,0.43728638,16.0499575,-32.250214,-267.67502,11.955826931358251,0.5170104395383038,270.0898443926136,44.43493749999641,26.047666667575164
15:14:49:05,-0.09788513,-1.5053406,11.224274,0.30003357,-0.13804626,0.44580078,16.949463,-32.400513,-266.99982,11.325191329410707,0.5548110024824138,269.49208043778196,44.43493749999641,26.047666708203327
15:14:49:06,0.005065918,-1.6777191,10.494049,0.4129486,-0.21261597,0.46070862,15.899658250000002,-32.475281499999994,-268.19992,10.627315345675548,0.6542052655576118,270.6287053016512,44.4349374999964,26.047666748831492
15:14:49:07,0.10322571,-1.7615204,10.154068,0.42466736,-0.23712158,0.46603394,14.8498535,-32.55005,-269.40002,10.306246000142107,0.6736146105771382,271.7653301655205,44.4349374999964,26.047666789459658
15:14:49:08,0.50305176,-1.9123535,9.277786,0.42359924,-0.25416565,0.46923828,14.39971925,-32.6248175,-269.69986,9.48617257085266,0.6813376968771495,272.0477228076906,44.4349374999964,26.04766683008782
15:14:49:09,0.62275696,-1.8070068,8.875565,0.3383789,-0.2381897,0.42982483,13.949585,-32.699585,-269.9997,9.079028245120712,0.596643945444709,272.3301154498607,44.4349374999964,26.047666870715986
15:14:49:10,0.53897095,-1.7447662,8.71994,0.23397827,-0.21687317,0.3776245,14.699554500000001,-33.074951,-269.4748,8.909099414711138,0.4943481219730604,271.8960971091083,44.434937499996394,26.047666911344148
15:14:49:11,0.19659424,-1.5867462,8.569107,0.037979126,-0.19770813,0.3019867,15.449524,-33.450317,-268.9499,8.716995329576852,0.3629419866269412,271.4620787683559,44.434937499996394,26.047666951972314
15:14:49:12,-0.05239868,-1.526886,8.648117,-0.08665466,-0.1870575,0.26470947,14.9246215,-33.5250855,-268.65006,8.782030182386686,0.3355154868462058,271.1453505463929,44.434937499996394,26.047666992600476
15:14:49:13,-0.32055664,-1.5340729,8.803741,-0.1953125,-0.16255188,0.23913574,14.399719,-33.599854,-268.35022,8.94214693555432,0.3489355076416443,270.82862232442983,44.43493749999639,26.04766703322864
15:14:49:14,-0.61743164,-1.5843506,9.0407715,-0.28373718,-0.13165283,0.24552917,15.3747555,-33.074951999999996,-268.35022,9.199290079620585,0.3976478697066667,270.81987052693796,44.43493749999639,26.047667073856804
15:14:49:15,-0.6988373,-1.6106873,9.45256,-0.33273315,-0.102890015,0.2796173,16.349792,-32.55005,-268.35022,9.614238279960226,0.44663580102239087,270.8111187294461,44.43493749999639,26.04766711448497
15:14:49:16,-0.694046,-1.5173187,9.799728,-0.3167572,-0.072006226,0.33288574,15.2999875,-33.374787,-268.27545,9.940755743979915,0.4651160459820223,270.77937506575,44.43493749999638,26.047667155113132
15:14:49:17,-0.54081726,-1.3832397,10.108582,-0.23046875,-0.048568726,0.37976074,14.250183,-34.199524,-268.20068,10.217106509530671,0.44687021104250524,270.7476314020539,44.43493749999638,26.047667195741298
15:14:49:18,-0.41392517,-1.2802887,10.046326,-0.0973053,-0.019805908,0.41810608,14.475249999999999,-34.199524,-268.72559,10.136031733374912,0.4297363023212734,271.2796089108614,44.43493749999638,26.04766723636946
15:14:49:19,-0.25830078,-1.1940918,9.727905,0.053955078,0.017486572,0.4426117,14.700317,-34.199524,-269.2505,9.804320996825881,0.44623093530053165,271.8115864196688,44.43493749999637,26.047667276997625
15:14:49:20,-0.07394409,-1.0336914,9.215546,0.19456482,0.039855957,0.44473267,14.77508525,-33.7493895,-268.05039,9.273633253315332,0.4870637681611589,270.57059045525864,44.43493749999637,26.047667317625788
15:14:49:21,0.18701172,-0.8708801,8.56192,0.31175232,0.06755066,0.41703796,14.8498535,-33.299255,-266.85028,8.608128694344282,0.5250459606289526,269.3295944908485,44.43493749999637,26.047667358253953
15:14:49:22,0.37615967,-0.7703247,7.9298553,0.35009766,0.08566284,0.38934326,15.599822750000001,-33.6746215,-267.22488999999996,7.976058006289992,0.5305607107596347,269.79085855623634,44.434937499996366,26.04766739888212
15:14:49:23,0.6610718,-0.6362457,7.3336945,0.3756714,0.11975098,0.27642822,16.349792,-34.049988,-267.5995,7.390865952975604,0.48154112887819744,270.2521226216242,44.434937499996366,26.04766743951028
15:14:49:24,0.7400818,-0.56681824,6.9697723,0.32026672,0.11442566,0.16989136,16.124725,-34.7999575,-268.199925,7.031836879630757,0.38016717087176743,270.92943442277203,44.434937499996366,26.047667480138447
15:14:49:25,0.6754303,-0.4566803,6.8859863,0.22972107,0.10910034,0.052719116,15.899658,-35.549927,-268.80035,6.934087561485929,0.25971900081026406,271.6067462239198,44.434937499996366,26.04766752076661
15:14:49:26,0.57247925,-0.42077637,6.972168,0.13491821,0.10270691,-0.054870605,16.424560500000002,-35.0997935,-268.875125,7.008274528402476,0.1782201336673784,271.65433183521844,44.43493749999636,26.047667561394775
15:14:49:27,0.43841553,-0.46147156,7.307358,0.06034851,0.078201294,-0.1486206,16.949463,-34.64966,-268.9499,7.335028637830804,0.17845298480791666,271.7019174465171,44.43493749999636,26.047667602022937
15:14:49:28,0.2301178,-0.54048157,7.4510193,0.010284424,0.082458496,-0.23277283,16.999817,-35.19999333333333,-268.6498066666667,7.47413962529193,0.24716060229292752,271.4800995303068,44.43493749999636,26.047667642651103
15:14:49:29,-0.011703491,-0.48780823,7.6688843,-0.036590576,0.094177246,-0.28923035,17.050171000000002,-35.750326666666666,-268.34971333333334,7.684391989464347,0.30636974275747075,271.2582816140966,44.43493749999635,26.047667683279265
15:14:49:30,-0.28224182,-0.43753052,8.028015,-0.05895996,0.09310913,-0.30841064,17.100525,-36.30066,-268.04962,8.04488149329208,0.3275098621992445,271.0364636978863,44.43493749999635,26.04766772390743
15:14:49:31,-0.5001221,-0.46626282,8.399124,-0.083465576,0.07287598,-0.33610535,17.100525,-35.700226,-268.19992,8.426909700453587,0.3538985972515216,271.1060852206291,44.43493749999635,26.047667764535593
15:14:49:32,-0.536026,-0.56921387,8.691208,-0.07707214,0.06967163,-0.33503723,17.100525,-35.099792,-268.35022,8.726306481080089,0.35077656175564154,271.17570674337196,44.434937499996344,26.04766780516376
15:14:49:33,-0.36843872,-0.51174927,8.97612,-0.03765869,0.04837036,-0.29776,16.6503905,-35.250091,-268.80035999999996,8.998242309481379,0.3040047470995243,271.61309703703256,44.434937499996344,26.04766784579192
15:14:49:34,-0.15774536,-0.43992615,9.3376465,-0.018478394,0.024932861,-0.2828369,16.200256,-35.40039,-269.2505,9.34933477713883,0.2845343750833536,272.05048733069316,44.434937499996344,26.047667886420086
15:14:49:35,0.09843445,-0.43273926,9.589035,0.06460571,-0.030456543,-0.26260376,16.950225500000002,-36.074829,-269.6251,9.599299184800792,0.27214377366063797,272.5569648894488,44.43493749999634,26.047667927048252
15:14:49:36,0.22532654,-0.43273926,9.636917,0.09550476,-0.04324341,-0.26260376,17.700195,-36.749268,-269.9997,9.649259276320786,0.28275764615165283,273.06344244820446,44.43493749999634,26.047667967676414
15:14:49:37,0.93400574,-0.35133362,10.252228,0.16047668,-0.08798218,-0.27005005,17.549896,-37.424469,-269.400025,10.300678666907306,0.32622179315057614,272.55374057206825,44.43493749999634,26.04766800830458
15:14:49:38,1.4344025,-0.34654236,10.690369,0.28405762,-0.1913147,-0.36698914,17.399597,-38.09967,-268.80035,10.79173718617358,0.5019672048989794,272.0440386959321,44.43493749999633,26.047668048932742
15:14:49:39,1.417633,-0.2579651,10.716705,0.3373108,-0.17745972,-0.41600037,18.2998655,-38.399505000000005,-268.65005499999995,10.813139940485927,0.5642046046065694,271.9984926642269,44.43493749999633,26.047668089560908
15:14:49:40,1.417633,-0.20050049,10.563477,0.42147827,-0.16255188,-0.51612854,19.200134,-38.69934,-268.49976,10.660062387186496,0.6858977442565757,271.9529466325216,44.43493749999633,26.04766813018907
15:14:49:41,1.50383,-0.18614197,10.424606,0.46089172,-0.1998291,-0.616272,17.774963,-39.149474999999995,-268.42499,10.534161749144138,0.7950748548126575,271.85075839684896,44.43493749999633,26.047668170817236
15:14:49:42,1.5110168,-0.27471924,10.3025055,0.45236206,-0.20303345,-0.7334442,16.349792,-39.59961,-268.35022,10.416345904790157,0.8853216419245528,271.7485701611763,44.43493749999632,26.047668211445398
15:14:49:43,1.4631348,-0.48301697,9.976898,0.39164734,-0.14976501,-0.84742737,16.349792,-39.974975,-267.97486,10.0951752108957,0.9454894735397601,271.43327411931705,44.43493749999632,26.047668252073564
15:14:49:44,1.3314514,-0.641037,9.802124,0.27127075,-0.07093811,-0.93904114,16.349792,-40.35034,-267.5995,9.91288687402953,0.9800093356026943,271.11797807745774,44.43493749999632,26.047668292701726
15:14:49:45,1.3912964,-0.6123047,10.070267,0.06567383,-0.00062561035,-1.0327911,18.600464,-41.85028,-268.35022,10.18434583906026,1.0348772388908691,272.23016690135955,44.434937499996316,26.04766833332989
15:14:49:46,1.472702,-0.6362457,10.259415,0.009216309,-0.00062561035,-1.0636749,19.274901999999997,-41.9250485,-268.050385,10.384086667290365,1.0637150110014917,271.99399813188734,44.434937499996316,26.047668373958054
15:14:49:47,1.5612946,-0.60990906,10.956131,-0.11116028,-0.02619934,-1.1829834,19.94934,-41.999817,-267.75055,11.083611161468099,1.1884833772256445,271.7578293624152,44.434937499996316,26.04766841458622
15:14:49:48,1.5900269,-0.5931549,11.581009,-0.15057373,-0.05708313,-1.273529,19.699604666666666,-42.49979666666667,-268.2505333333333,11.704690843255905,1.283669367764811,272.3107946713786,44.43493749999631,26.04766845521438
15:14:49:49,1.551712,-0.62667847,11.995209,-0.15589905,-0.07626343,-1.3193359,19.449869333333332,-42.99977633333333,-268.75051666666667,12.11138204291263,1.3307020108104886,272.863759980342,44.43493749999631,26.047668495842547
15:14:49:50,1.4535522,-0.86369324,12.878662,-0.081329346,-0.04536438,-1.4546356,19.200134,-43.499756,-269.2505,12.989176837705712,1.4576135009943247,273.4167252893054,44.43493749999631,26.047668536470713
15:14:49:51,1.1087799,-1.2108612,13.053452,0.02519226,0.049438477,-1.526001,19.350433,-43.499756,-268.350225,13.156298371069784,1.5270094515008696,272.5409646549929,44.4349374999963,26.047668577098875
15:14:49:52,0.8214874,-1.4239349,12.720657,0.13278198,0.17193604,-1.5536957,19.500732,-43.499756,-267.44995,12.826439360143786,1.5688095436547076,271.66520402068033,44.4349374999963,26.04766861772704
15:14:49:53,0.5006561,-1.5149231,12.074219,0.20628357,0.2774048,-1.539856,19.275665,-44.5495605,-268.27468999999996,12.179179487524674,1.5781833971535073,272.63239239658833,44.4349374999963,26.047668658355203
15:14:49:54,0.23728943,-1.3999939,11.377502,0.22653198,0.29444885,-1.4972382,19.050598,-45.599365,-269.09943,11.465768223439323,1.5426402985687502,273.59958077249627,44.434937499996295,26.04766869898337
15:14:49:55,0.30673218,-1.2395935,10.79332,0.2041626,0.24650574,-1.4482422,19.950104,-45.749663999999996,-269.249725,10.868598497409398,1.483190114905216,273.8380000364711,44.434937499996295,26.04766873961153
