,ax,ay,az,gx,gy,gz,mx,my,mz,a_total,g_total,m_total,lat,long
18:26:12:20,0.7472534,-0.41119385,8.988098,0.029449463,-0.36175537,-0.048477173,56.024932500000006,-49.575042499999995,-261.6745,9.02847571208415,0.3661751696891765,272.15985000164983,44.4349375,26.0476015
18:26:12:21,0.7927551,-0.49020386,8.865982,-0.024871826,-0.29890442,-0.0048065186,56.84967,-49.049377,-261.59973,8.914841406175373,0.29997593677687356,272.1619831998399,44.43493749999999,26.04760161449755
18:26:12:22,1.0632935,-0.38964844,8.921051,-0.08558655,-0.26268005,0.018630981,56.25,-49.3499755,-262.049865,8.992639763636577,0.2768988617924013,272.5254754822286,44.43493749999998,26.047601728995105
18:26:12:23,1.2572327,-0.35133362,9.107803,-0.13459778,-0.23924255,0.013305664,55.65033,-49.650574,-262.5,9.20087739627589,0.2748283115072241,272.88896776461735,44.434937499999975,26.047601843492657
18:26:12:24,1.2739868,-0.3872528,9.194,-0.16015625,-0.21154785,-0.0079956055,55.65033,-49.275206999999995,-262.875365,9.289921587273064,0.2654551693996495,273.1824636343397,44.43493749999997,26.047601957990214
18:26:12:25,1.2931366,-0.40400696,9.29216,-0.16548157,-0.19770813,-0.028244019,55.65033,-48.89984,-263.25073,9.390402619461426,0.259365339409556,273.475959504062,44.43493749999997,26.047602072487766
18:26:12:26,1.5181885,-0.31303406,9.500458,-0.16442871,-0.2147522,-0.048477173,55.1254275,-48.300169999999994,-262.800595,9.626088969774605,0.27478235820222524,272.83015338146606,44.43493749999996,26.04760218698532
18:26:12:27,1.5205841,-0.16459656,9.864365,-0.1356659,-0.2701416,-0.08576965,54.600525,-47.7005,-262.35046,9.982232460024242,0.31422627728198116,272.18434725887016,44.434937499999954,26.047602301482872
18:26:12:28,1.4511566,-0.24360657,10.137314,-0.06854248,-0.38198853,-0.11878967,54.750061,-48.525238,-262.57552999999996,10.243550886936948,0.4058624081075016,272.57801652378345,44.43493749999995,26.047602415980425
18:26:12:29,1.3553925,-0.35612488,10.139709,0.009216309,-0.43418884,-0.13902283,54.899597,-49.349976,-262.8006,10.236093608593674,0.45599587321963564,272.97168578869673,44.43493749999994,26.047602530477977
18:26:12:30,1.254837,-0.4638672,9.907471,0.0635376,-0.44378662,-0.14222717,55.049896000000004,-48.750305499999996,-262.05062999999996,9.997388173500408,0.47033196637161856,272.17259620447885,44.43493749999993,26.04760264497553
18:26:12:31,1.1662445,-0.4351349,9.639313,0.07952881,-0.43951416,-0.13157654,55.200195,-48.150635,-261.30066,9.71935305084383,0.465628515384199,271.373506620261,44.434937499999926,26.047602759473087
18:26:12:32,1.2691956,-0.4447174,9.490875,0.05076599,-0.40756226,-0.111328125,55.4252625,-48.000336000000004,-262.05062999999996,9.585684081094428,0.425532763642241,272.1150683975513,44.43493749999992,26.04760287397064
18:26:12:33,1.3362274,-0.49499512,9.48848,0.0049591064,-0.31062317,-0.10600281,55.65033,-47.850037,-262.8006,9.594882831162376,0.32824981676313475,272.85663017484154,44.43493749999992,26.047602988468192
18:26:12:34,1.309906,-0.45188904,9.464539,-0.053634644,-0.21154785,-0.11026001,56.024933,-48.9753725,-262.425235,9.5654354796752,0.24451265341865097,272.7744948745104,44.43493749999991,26.047603102965745
18:26:12:35,1.1829987,-0.3872528,9.562698,-0.11329651,-0.1486969,-0.11665344,56.399536,-50.100708,-262.04987,9.643373045491579,0.2203517467859597,272.69235957417925,44.434937499999904,26.047603217463298
18:26:12:36,1.0848389,-0.42077637,9.696777,-0.15377808,-0.07307434,-0.12625122,55.3497315,-49.95040899999999,-262.5,9.76634078763549,0.21195973109628724,272.8849141221075,44.4349374999999,26.04760333196085
18:26:12:37,0.7759857,-0.5141449,9.955353,-0.16548157,-0.003829956,-0.12625122,54.299927,-49.80011,-262.95013,9.998777532249106,0.20817826285209326,273.07746867003567,44.43493749999989,26.047603446458403
18:26:12:38,0.5916443,-0.47583008,10.000839,-0.14524841,0.05050659,-0.092163086,54.349772333333334,-49.50002,-263.15002,10.029618035931193,0.1792820422183984,273.2257377707825,44.43493749999988,26.04760356095596
18:26:12:39,0.48869324,-0.34176636,9.895493,-0.114349365,0.06755066,-0.059127808,54.399617666666664,-49.199929999999995,-263.34991,9.913445770300978,0.14537870071376924,273.37400687152933,44.434937499999876,26.047603675453512
18:26:12:40,0.562912,-0.16699219,9.852402,-0.079208374,0.043045044,-0.031433105,54.449463,-48.89984,-263.5498,9.869882546457632,0.09547189332273052,273.52227597227613,44.43493749999987,26.047603789951065
18:26:12:41,0.51023865,-0.08319092,9.684799,-0.044052124,0.014282227,-0.010131836,54.449463,-48.150635,-263.5498,9.698587313600123,0.0474049125905934,273.38932816028426,44.43493749999986,26.047603904448618
18:26:12:42,0.63952637,0.00061035156,9.4956665,-0.024871826,-0.034713745,0.014373779,54.449463,-47.775268499999996,-263.1752,9.517177976148007,0.045058377059545116,272.9624611663925,44.43493749999986,26.04760401894617
18:26:12:43,0.8382416,0.14425659,9.392715,-0.024871826,-0.09970093,0.017562866,54.449463,-47.399902,-262.8006,9.43114807512606,0.10424652240517729,272.5355941725006,44.434937499999855,26.047604133443723
18:26:12:44,0.87416077,0.22087097,9.272995,-0.044052124,-0.13058472,-0.0016021729,55.424499499999996,-48.149871,-262.8006,9.316725675215555,0.1378242565167368,272.8659828112087,44.43493749999985,26.047604247941276
18:26:12:45,0.7400818,0.24960327,9.083862,-0.08879089,-0.14125061,-0.019714355,56.399536,-48.89984,-262.8006,9.117377457258744,0.1680006332292537,273.19637144991674,44.43493749999984,26.047604362438832
18:26:12:46,0.3905182,0.32621765,9.110199,-0.18040466,-0.14762878,-0.017593384,55.500030499999994,-48.300169999999994,-262.350465,9.12439851383661,0.23377259290724275,272.4734390684522,44.43493749999983,26.047604476936385
18:26:12:47,0.17984009,0.3381958,9.299332,-0.28373718,-0.11248779,0.011169434,54.600525,-47.7005,-261.90033,9.307217334054945,0.30542600817434795,271.75050668698765,44.434937499999826,26.047604591433938
18:26:12:48,0.03617859,0.26158142,9.718323,-0.3721466,-0.04324341,0.04953003,54.600525,-47.7005,-263.549805,9.721910083002856,0.37791045006957535,273.3408973632306,44.43493749999982,26.04760470593149
18:26:12:49,0.0864563,0.24481201,10.37912,-0.41688538,0.012161255,0.0942688,54.600525,-47.7005,-265.19928,10.382366762277758,0.42758381965920955,274.9312880394736,44.43493749999981,26.047604820429044
18:26:12:50,0.17504883,0.2735443,10.855576,-0.3913269,0.061157227,0.14219666,54.9751275,-46.95053,-264.67438,10.860432720141626,0.4208287528117525,274.3716630069027,44.43493749999981,26.047604934926596
18:26:12:51,0.34742737,0.27833557,11.09259,-0.31356812,0.05795288,0.1773529,55.34973,-46.20056,-264.14948,11.101519237250924,0.3648801903625885,273.81203797433176,44.434937499999805,26.047605049424153
18:26:12:52,0.5461426,0.34059143,11.018372,-0.21128845,0.008956909,0.19439697,55.43539714285714,-46.47914214285714,-264.0638114285714,11.037155240011268,0.28725113971474103,273.7948910565142,44.4349374999998,26.047605163921705
18:26:12:53,0.6103088600000001,0.385601804,10.856525,-0.15589905,-0.022994995,0.19439697,55.52106428571429,-46.75772428571429,-263.97814285714287,10.882021191674365,0.2502468092326722,273.7777441386967,44.43493749999979,26.047605278419258
18:26:12:54,0.67447512,0.43061217799999996,10.694678,-0.158031465,-0.10502243125,0.16137313650000001,55.60673142857143,-47.03630642857143,-263.8924742857143,10.726887143337464,0.2858535950491973,273.7605972208791,44.43493749999978,26.04760539291681
18:26:12:55,0.73864138,0.475622552,10.532831,-0.16016388,-0.1870498675,0.128349303,55.69239857142857,-47.314888571428575,-263.8068057142857,10.571753095000561,0.3214603808657223,273.7434503030616,44.434937499999776,26.047605507414364
18:26:12:56,0.8028076399999999,0.520632926,10.370984,-0.162296295,-0.26907730375,0.0953254695,55.77806571428571,-47.593470714285715,-263.7211371428571,10.41661904666366,0.35706716668224736,273.726303385244,44.43493749999977,26.047605621911917
18:26:12:57,0.8669739,0.5656433,10.209137,-0.16442871,-0.35110474,0.062301636,55.86373285714286,-47.87205285714286,-263.6354685714286,10.261484998326758,0.39267395249877246,273.7091564674265,44.43493749999976,26.04760573640947
18:26:12:58,1.1016083,0.5752106,10.211533,-0.25390625,-0.32766724,0.027145386,55.9494,-48.150635,-263.5498,10.286875827532393,0.41541674970969705,273.69200954960894,44.434937499999755,26.047605850907026
18:26:12:59,1.0249939,0.5871887,10.93219,-0.2890625,-0.22647095,-0.017593384,55.799866,-47.250366,-264.9002,10.99582562887139,0.36763534549975463,274.80600083111705,44.434937499999755,26.04760596540458
18:26:12:60,0.83584595,0.47705078,11.451721,-0.2613678,-0.07626343,-0.03996277,55.34973166666667,-47.050476,-264.45006666666666,11.492089877853854,0.27518404862614726,274.24704808796156,44.43493749999975,26.04760607990213
18:26:12:61,0.68740845,0.34536743,11.700729,-0.1910553,0.101638794,-0.033569336,54.89959733333333,-46.850586,-263.99993333333333,11.72599113807772,0.21899651235429604,273.6880953448061,44.43493749999974,26.047606194399684
18:26:12:62,0.7233124,0.28552246,11.736633,-0.083465576,0.28486633,-0.023986816,54.449463,-46.650696,-263.5498,11.762366176915563,0.2978098314134349,273.1291426016506,44.434937499999734,26.047606308897237
18:26:12:63,0.7520447,0.3166504,11.418213,0.055023193,0.46914673,-0.027175903,55.200195,-46.350098,-264.75067,11.44733273824026,0.47314346211426567,274.38715417835533,44.43493749999973,26.04760642339479
18:26:12:64,0.7544403,0.3166504,10.613754,0.17752075,0.6300049,-0.025039673,55.9501645,-46.350098,-264.150235,10.645244084312969,0.6550166226352728,273.9613856738987,44.43493749999972,26.047606537892342
18:26:12:65,0.6490936,0.4004364,9.603409,0.22865295,0.6853943,-0.02078247,56.700134,-46.350098,-263.5498,9.633646050861891,0.7228273853939773,273.53561716944205,44.43493749999971,26.0476066523899
18:26:12:66,0.7688141,0.5345154,8.973724,0.21374512,0.66197205,-0.029312134,56.700134,-46.350098,-263.5498,9.022444472612285,0.6962421794926323,273.53561716944205,44.434937499999705,26.04760676688745
18:26:12:67,0.75923157,0.6853485,8.645721,0.1615448,0.59165955,-0.060195923,56.700134,-46.350098,-263.5498,8.706010955264064,0.6162639813091987,273.53561716944205,44.434937499999705,26.047606881385004
18:26:12:68,0.6969757,0.63986206,8.741486,0.10295105,0.47021484,-0.09642029,57.150268499999996,-46.424866,-263.249965,8.79254093367861,0.490915254169202,273.3536728376821,44.4349374999997,26.047606995882557
18:26:12:69,0.5341797,0.5417023,9.098221,0.059280396,0.34451294,-0.11878967,57.600403,-46.499634,-262.95013,9.129973422664404,0.36920768799697185,273.17172850592215,44.43493749999969,26.04760711038011
18:26:12:70,0.51023865,0.37409973,9.375946,0.04437256,0.26887512,-0.12730408,58.100382,-46.99961366666667,-262.75024,9.397268618213268,0.30078078898196675,273.17281438756015,44.434937499999684,26.047607224877662
18:26:12:71,0.49586487,0.25439453,9.612976,0.04862976,0.22413635,-0.12944031,58.600361,-47.49959333333333,-262.55035,9.629117619115993,0.26335669879818174,273.17390026919816,44.43493749999968,26.047607339375215
18:26:12:72,0.48869324,0.2807312,9.80452,0.06567383,0.18579102,-0.13264465,59.10034,-47.999573,-262.35046,9.820704838242271,0.2375414873935326,273.17498615083616,44.43493749999967,26.04760745387277
18:26:12:73,0.36897278,0.23764038,9.811691,0.096572876,0.15596008,-0.13902283,57.82547,-48.524474999999995,-261.75003000000004,9.821501623584272,0.23016779573547355,272.4209621879753,44.43493749999966,26.047607568370324
18:26:12:74,0.26841736,0.17059326,9.533966,0.11361694,0.12294006,-0.13157654,56.5506,-49.049377,-261.1496,9.53926923976165,0.21292123728303572,271.66693822511445,44.434937499999656,26.047607682867877
18:26:12:75,0.3378601,0.21847534,9.40947,0.084854126,0.10910034,-0.111328125,58.94928,-47.850037,-261.74927,9.41806809288721,0.17747410600804586,272.53866514487936,44.43493749999965,26.04760779736543
18:26:12:76,0.562912,0.31185913,9.426224,0.042236328,0.08885193,-0.113464355,58.899434666666664,-48.399861333333334,-261.79962333333333,9.44816516234154,0.15017567287418596,272.6743672993311,44.43493749999965,26.047607911862983
18:26:12:77,0.80711365,0.34298706,9.639313,0.006011963,0.05050659,-0.13369751,58.849589333333334,-48.94968566666667,-261.8499766666667,9.679123290841623,0.14304573923309133,272.81006945378283,44.43493749999964,26.047608026360535
18:26:12:78,1.1063843,0.39564514,9.931412,-0.00036621094,0.0025634766,-0.1795044,58.799744,-49.49951,-261.90033,10.000678257490145,0.1795230769068181,272.94577160823457,44.434937499999634,26.047608140858088
18:26:12:79,1.1997681,0.37649536,10.015198,0.018798828,-0.018737793,-0.2498169,58.724976,-48.6747735,-261.299895,10.093828967695218,0.2512229773454141,272.2057865537478,44.43493749999963,26.047608255355645
18:26:12:80,1.0608978,0.3381958,9.969711,0.024124146,-0.03578186,-0.31692505,58.650208,-47.850037,-260.69946,10.031700651669361,0.31984965724976383,271.4658014992611,44.43493749999962,26.047608369853197
18:26:12:81,0.81430054,0.30706787,9.878738,0.0038909912,-0.030456543,-0.37019348,59.024811,-48.750305499999996,-261.22436500000003,9.916997555655373,0.3714646059297436,272.2119744455691,44.43493749999961,26.04760848435075
18:26:12:82,0.60121155,0.23764038,9.940979,-0.034454346,-0.007019043,-0.38616943,59.399414,-49.650574,-261.74927,9.961977301545158,0.38776693720513156,272.9581473918772,44.434937499999606,26.047608598848303
18:26:12:83,0.4982605,0.12271118,10.051117,-0.079208374,0.031326294,-0.39042664,59.549713,-48.9006045,-261.524965,10.064207594602083,0.399610140548495,272.6413023059123,44.4349374999996,26.047608713345856
18:26:12:84,0.6131897,0.041305542,10.479675,-0.11009216,0.094177246,-0.3946991,59.700012,-48.150635,-261.30066,10.49768049912032,0.42044859007781216,272.3244572199474,44.4349374999996,26.04760882784341
18:26:12:85,0.5772705,-0.028121948,10.829239,-0.104766846,0.20069885,-0.4074707,59.549713,-48.374939,-261.524965,10.84465072712121,0.4661421368752242,272.5466642590328,44.43493749999959,26.04760894234096
18:26:12:86,0.428833,-0.18614197,10.778961,-0.08665466,0.35090637,-0.41174316,59.399414,-48.599243,-261.74927,10.789093882917394,0.5478838749343496,272.76887129811814,44.434937499999585,26.047609056838517
18:26:12:87,0.15829468,-0.32260132,10.807678,-0.08985901,0.4915161,-0.38723755,59.624482,-48.82431,-260.924535,10.813650288827821,0.6321515944513567,272.06762913606633,44.43493749999958,26.04760917133607
18:26:12:88,0.017028809,-0.3776703,10.843597,-0.079208374,0.59165955,-0.33822632,59.84955,-49.049377,-260.0998,10.850185285710428,0.6860991423684107,271.3663869740146,44.43493749999957,26.047609285833623
18:26:12:89,-0.030853271,-0.40879822,10.936966,-0.051498413,0.6129608,-0.28816223,59.774781000000004,-49.3499755,-260.54993,10.944646782521698,0.679272036577932,271.83595902202427,44.43493749999956,26.047609400331176
18:26:12:90,0.009841919,-0.562027,11.219482,0.0038909912,0.54052734,-0.2306366,59.700012,-49.650574,-261.00006,11.23355453809802,0.5876888516549843,272.30553107003396,44.434937499999556,26.04760951482873
18:26:12:91,0.07928467,-0.65301514,11.470886,0.10508728,0.40097046,-0.16459656,60.2996825,-49.650574,-260.624695,11.489731957576828,0.4459962710317695,272.0788708825522,44.43493749999955,26.04760962932628
18:26:12:92,0.3857422,-0.7846832,11.411026,0.22439575,0.19432068,-0.0974884,60.899353,-49.650574,-260.24933,11.444476359445156,0.31243874188116444,271.8522106950704,44.43493749999955,26.047609743823834
18:26:12:93,0.9124603,-0.88046265,11.28653,0.32666016,-0.053894043,-0.061264038,60.675049,-49.275206999999995,-259.124755,11.357533082409274,0.3366967632071578,270.65692940342177,44.43493749999954,26.04760985832139
18:26:12:94,1.5445251,-0.80862427,10.939362,0.388443,-0.2935791,-0.080444336,60.450745,-48.89984,-258.00018,11.077412692574336,0.49350576835564025,269.4616481117731,44.434937499999535,26.047609972818943
18:26:12:95,1.982666,-0.66737366,10.506012,0.37460327,-0.48745728,-0.16885376,61.7256175,-48.8250725,-258.82492,10.712265876730365,0.6375372945842689,270.52809935619285,44.43493749999953,26.047610087316496
18:26:12:96,2.0568848,-0.50216675,10.060699,0.2552948,-0.62594604,-0.29029846,63.00049,-48.750305,-259.64966,10.28108023963813,0.7357017573562626,271.5945506006126,44.43493749999952,26.04761020181405
18:26:12:97,2.1071625,-0.5045624,10.098999,0.026260376,-0.75909424,-0.42451477,62.625123,-49.1249075,-259.124755,10.32881880075844,0.8701301411265971,271.07395107288926,44.43493749999951,26.0476103163116
18:26:12:98,2.0042114,-0.7487793,10.51799,-0.24111938,-0.7953186,-0.5651398,62.249756,-49.49951,-258.59985,10.733389372239248,1.0050140419225915,270.5533515451659,44.434937499999506,26.047610430809154
18:26:12:99,1.6881866,-1.174942,11.291321,-0.4978485,-0.70370483,-0.6791229,61.4997865,-48.600004999999996,-258.44955500000003,11.477124754258993,1.097388504597159,270.07688504757914,44.4349374999995,26.047610545306707
18:26:13:00,1.3745422,-1.6154785,12.620102,-0.6832123,-0.5545654,-0.74090576,60.749817,-47.7005,-258.29926,12.79711340630953,1.1503317673391567,269.6004185499924,44.43493749999949,26.047610659804263
18:26:13:01,0.9292145,-1.7495575,13.766922,-0.7194214,-0.3681488,-0.7558136,61.3502505,-48.675537,-259.274295,13.908721450474895,1.1065057106334155,270.84503691651867,44.43493749999949,26.047610774301816
18:26:13:02,0.6323395,-1.7974396,14.444473,-0.61183167,-0.24884033,-0.71640015,61.950684,-49.650574,-260.24933,14.569606810296476,0.9744170960987498,272.0896552830449,44.434937499999485,26.04761088879937
18:26:13:03,0.54374695,-1.739975,14.564194,-0.4232788,-0.1870575,-0.64608765,61.725617,-48.8250735,-259.94949499999996,14.67783773639344,0.794723034973954,271.6031385234087,44.43493749999948,26.04761100329692
18:26:13:04,0.5964203,-1.5628052,14.252945,-0.20703125,-0.1401825,-0.5832367,61.50055,-47.999573,-259.64966,14.350767172539038,0.6345692397285757,271.1166217637724,44.43493749999947,26.047611117794474
18:26:13:05,0.56051636,-1.4071808,13.577774,-0.0025024414,-0.07519531,-0.53637695,60.67505,-47.999573,-259.64966,13.662001434225964,0.5416279436571372,270.93175139137134,44.434937499999464,26.047611232292027
18:26:13:06,0.6850128,-1.4167633,12.677551,0.16687012,0.04197693,-0.4777832,59.84955,-47.999573,-259.64966,12.77484873264618,0.5078232820610722,270.7468810189702,44.43493749999946,26.047611346789584
18:26:13:07,0.7520447,-1.447876,11.540314,0.28511047,0.18792725,-0.41493225,60.449982500000004,-47.6249695,-259.34983,11.655074575513025,0.5373764076383014,270.52766053128664,44.43493749999945,26.047611461287136
18:26:13:08,0.7400818,-1.447876,9.735077,0.3618164,0.3519745,-0.34461975,61.050415,-47.250366,-259.05,9.869943777853866,0.6111954908613713,270.3084400436031,44.43493749999944,26.04761157578469
18:26:13:09,0.7831726,-1.4598541,9.21315,0.39697266,0.4734192,-0.26472473,60.900116,-47.475432999999995,-259.95026,9.360911613575762,0.6721549035673908,271.17707816525285,44.43493749999944,26.047611690282242
18:26:13:10,0.7688141,-1.2467651,8.272232,0.4118805,0.5160217,-0.15713501,60.749817,-47.7005,-260.85052,8.400911890786668,0.6786864905969767,272.0457162869026,44.434937499999435,26.047611804779795
18:26:13:11,0.8478241,-1.0815735,7.5467834,0.4086914,0.4350586,-0.090026855,60.974883500000004,-47.9255675,-259.65042,7.670889559038027,0.603663383425822,270.9862656276729,44.43493749999943,26.047611919277347
18:26:13:12,1.0800476,-0.97143555,7.1756744,0.41827393,0.29763794,-0.05380249,61.19995,-48.150635,-258.45032,7.321235752308822,0.5161745167821524,269.9268149684431,44.43493749999942,26.0476120337749
18:26:13:13,1.3122864,-0.8182068,6.790207,0.42466736,0.22627258,-0.04421997,61.35025,-47.700500500000004,-258.000185,6.96408422307199,0.4832153276294398,269.4503427162721,44.434937499999414,26.047612148272457
18:26:13:14,1.4439697,-0.7320099,6.3760223,0.42785645,0.08459473,-0.03463745,61.50055,-47.250366,-257.55005,6.578339255337428,0.43751247192837583,268.97387046410097,44.43493749999941,26.04761226277001
18:26:13:15,1.5636902,-0.5907593,6.0480194,0.3841858,-0.067733765,-0.049545288,60.975647499999994,-48.075103,-258.000185,6.274763920251414,0.39324461522787335,269.43327163210154,44.4349374999994,26.047612377267562
18:26:13:16,1.5469208,-0.54766846,5.87323,0.31175232,-0.1870575,-0.08149719,60.450745,-48.89984,-258.45032,6.098174754502483,0.37258798868123555,269.89267280010216,44.43493749999939,26.047612491765115
18:26:13:17,1.4750977,-0.5835724,5.7319794,0.21800232,-0.23605347,-0.099609375,61.050415,-49.124908,-258.45032,5.947441282821665,0.3364049342865142,270.06917035106227,44.434937499999386,26.047612606262668
18:26:13:18,1.5301666,-0.50216675,5.691269,0.08590698,-0.2509613,-0.10707092,61.650085,-49.349976,-258.45032,5.914737872376266,0.28605203236484233,270.2456679020224,44.434937499999386,26.04761272076022
18:26:13:19,1.6450806,-0.3944397,5.892395,-0.05895996,-0.26268005,-0.123046875,60.7498175,-49.0501405,-258.150485,6.13043160743658,0.29600273478207884,269.7013598923905,44.43493749999938,26.047612835257773
18:26:13:20,1.5062256,-0.3944397,6.5436096,-0.18786621,-0.28292847,-0.15180969,59.84955,-48.750305,-257.85065,6.726300976929564,0.37200593271371507,269.1570518827586,44.43493749999937,26.04761294975533
18:26:13:21,1.3194733,-0.5548401,7.2427216,-0.25709534,-0.28079224,-0.16139221,59.774781000000004,-48.300171,-257.02515,7.382809323088837,0.4135090583561832,268.2684452825772,44.434937499999364,26.047613064252882
18:26:13:22,1.0608978,-0.65779114,7.644943,-0.2890625,-0.22859192,-0.14541626,59.700012,-47.850037,-256.19965,7.746182724358904,0.3961783480554231,267.37983868239587,44.43493749999936,26.047613178750435
18:26:13:23,0.98428345,-0.6697693,7.8819733,-0.30929565,-0.18811035,-0.103881836,59.774781000000004,-47.924805,-256.124875,7.971380553397215,0.3766174965887484,267.3383212708458,44.43493749999935,26.047613293247988
18:26:13:24,1.0872345,-0.56921387,8.06633,-0.31462097,-0.1955719,-0.068725586,59.84955,-47.999573,-256.0501,8.159152097901512,0.3767730470779383,267.2968038592958,44.43493749999934,26.04761340774554
18:26:13:25,1.2859497,-0.5141449,8.391937,-0.29864502,-0.2467041,-0.05593872,60.2996835,-48.1498715,-256.575,8.505446385763365,0.39138331763483325,267.92777978378115,44.434937499999336,26.047613522243093
18:26:13:26,1.3410187,-0.45188904,8.454178,-0.26029968,-0.28399658,-0.047409058,60.749817,-48.30017,-257.0999,8.571794474548827,0.38814636368288463,268.5587557082665,44.434937499999336,26.047613636740646
18:26:13:27,1.4631348,-0.3944397,8.332077,-0.23153687,-0.33512878,-0.045288086,60.549926666666664,-47.399901666666665,-256.7001233333333,8.46875747992798,0.409843423867248,267.97263116583304,44.43493749999933,26.047613751238202
18:26:13:28,1.6833954,-0.24838257,8.26265,-0.24325562,-0.4224701,-0.052749634,60.350036333333335,-46.499633333333335,-256.30034666666666,8.43604759329397,0.4903435590917131,267.3865066233995,44.43493749999932,26.047613865735755
18:26:13:29,1.721695,-0.21965027,8.329681,-0.27946472,-0.5076904,-0.076171875,60.150146,-45.599365,-255.90057,8.508587748615929,0.5845102450067526,266.800382080966,44.434937499999315,26.047613980233308
18:26:13:30,1.685791,-0.2795105,8.729523,-0.3444519,-0.5737457,-0.10707092,60.150146,-47.099304,-256.95038,8.895200347536882,0.6777133771674766,268.0669361992451,44.43493749999931,26.04761409473086
18:26:13:31,1.7552185,-0.3082428,9.162872,-0.35723877,-0.56414795,-0.10813904,59.850311000000005,-47.024536,-257.250215,9.3345609910096,0.6764440111734576,268.2744530502729,44.4349374999993,26.04761419968695
18:26:13:32,1.9299927,-0.27471924,9.500458,-0.35403442,-0.5577698,-0.10920715,59.550476,-46.949768,-257.55005,9.69840423433894,0.6696071400066601,268.48196990130066,44.43493749999929,26.04761430464304
18:26:13:33,1.9180298,-0.17176819,9.802124,-0.33380127,-0.5503082,-0.11985779,60.675048000000004,-47.100066999999996,-256.950375,9.989493357330986,0.6546970999359452,268.1882427704433,44.43493749999929,26.04761440959913
18:26:13:34,1.5588989,-0.25556946,9.900284,-0.29013062,-0.4554901,-0.08895874,61.79962,-47.250366,-256.3507,10.02552267016348,0.5473213546738168,267.89451563958596,44.434937499999286,26.04761451455522
18:26:13:35,1.4344025,-0.37527466,10.015198,-0.28053284,-0.38731384,-0.062332153,62.174987,-46.5003965,-256.3507,10.12435344017821,0.48228205675893293,267.85144907859717,44.43493749999928,26.047614619511315
18:26:13:36,1.5349579,-0.24598694,10.110977,-0.26029968,-0.23712158,-0.005874634,62.550354,-45.750427,-256.3507,10.229783048723565,0.3521605861456287,267.8083825176084,44.43493749999927,26.047614724467405
18:26:13:37,1.6235352,-0.032913208,10.027176,-0.23260498,-0.11567688,0.03781128,61.199951999999996,-46.1250305,-256.57501,10.157815137118607,0.2625183997029031,267.7792032567485,44.434937499999265,26.047614829423495
18:26:13:38,1.7671967,0.21130371,9.86676,-0.20170593,-0.04750061,0.06123352,59.84955,-46.499634,-256.79932,10.025995528223152,0.21608131367410605,267.7500239958885,44.434937499999265,26.047614934379585
18:26:13:39,1.8940887,0.37649536,9.749451,-0.17082214,-0.00062561035,0.07295227,59.84955,-45.974732,-255.89981,9.938868927648167,0.18574883203035902,266.7968016736041,44.43493749999926,26.047615039335675
18:26:13:40,1.9635162,0.49621582,9.555511,-0.15589905,0.030258179,0.0793457,59.84955,-45.44983,-255.0003,9.767774387177546,0.1775269311845066,265.84357935131965,44.43493749999925,26.047615144291765
18:26:13:41,2.0090027,0.67578125,9.387924,-0.15483093,0.052627563,0.08894348,60.2996835,-45.44983,-254.624935,9.624234472218289,0.18615375340426063,265.5859061105,44.43493749999924,26.047615249247855
18:26:13:42,2.116745,0.78829956,9.45018,-0.16015625,0.03453064,0.07827759,60.749817,-45.44983,-254.24957,9.716374201507536,0.18157579852249087,265.3282328696803,44.434937499999236,26.04761535420395
18:26:13:43,2.0880127,0.9199829,9.660858,-0.13673401,0.014282227,0.07295227,60.900116,-45.44983,-255.300135,9.926648118464646,0.15563484570272984,266.36950302153593,44.43493749999923,26.04761545916004
18:26:13:44,1.9491577,0.9965973,9.914642,-0.116485596,-0.007019043,0.076156616,61.050415,-45.44983,-256.3507,10.15345004941673,0.13934845245169578,267.41077317339165,44.43493749999923,26.04761556411613
18:26:13:45,1.8222504,1.0181427,10.149277,-0.036590576,-0.09970093,0.10066223,61.7248535,-45.6748965,-255.37566500000003,10.361710027818402,0.14632850113169882,266.6716969719768,44.43493749999922,26.04761566907222
18:26:13:46,1.8054962,1.0085754,10.350388,-0.004638672,-0.1252594,0.11450195,62.399292,-45.899963,-254.40063,10.55497857014611,0.16977081940099742,265.932620770562,44.434937499999215,26.04761577402831
18:26:13:47,1.8533783,0.9702606,10.597,0.094436646,-0.12207031,0.15179443,62.099456,-47.1000665,-254.100035,10.801519603964215,0.21647399305748097,265.7878590873712,44.43493749999921,26.0476158789844
18:26:13:48,2.0664673,0.98223877,10.618546,0.15942383,-0.058151245,0.1730957,61.79962,-48.30017,-253.79944,10.862255716810225,0.2424038906977545,265.6430974041805,44.4349374999992,26.04761598394049
18:26:13:49,2.1598358,0.97984314,10.309692,0.19137573,-0.009155273,0.1816101,62.249755,-46.9497675,-254.47464000000002,10.578975961634033,0.2639899950353184,266.1557333158278,44.4349374999992,26.04761608889658
18:26:13:50,2.085617,0.8816681,10.053513,0.18179321,0.023864746,0.18374634,62.69989,-45.599365,-255.14984,10.305351063909255,0.25957853294743816,266.668369227475,44.434937499999194,26.04761619385267
18:26:13:51,2.0640717,0.8313904,9.962524,0.1381073,0.028137207,0.20185852,61.8751525,-46.9497675,-255.22461,10.208010894906463,0.2461954321827301,266.7862668587193,44.43493749999919,26.047616298808762
18:26:13:52,2.013794,0.8313904,10.091812,0.07739258,-0.019805908,0.21676636,61.050415,-48.30017,-255.29938,10.324303643103109,0.23101848466824135,266.9041644899636,44.43493749999918,26.047616403764852
18:26:13:53,2.0353394,0.754776,10.601776,0.024124146,-0.12420654,0.23701477,61.8003845,-47.025298500000005,-254.54941000000002,10.821734964299594,0.2686731102979117,266.13573242513894,44.43493749999917,26.047616508720942
18:26:13:54,2.1694183,0.4985962,11.513977,0.013473511,-0.24990845,0.2519226,62.550354,-45.750427,-253.79944,11.727175290220503,0.3551066956153173,265.36730036031423,44.43493749999917,26.047616613677032
18:26:13:55,2.3370056,0.23045349,12.490814,0.070999146,-0.31169128,0.2711029,61.35025,-45.450592,-253.19977,12.709647452548813,0.41915285415845344,264.4632402553129,44.434937499999165,26.047616718633122
18:26:13:56,2.657837,-0.028121948,12.967255,0.19137573,-0.29571533,0.27749634,60.150146,-45.150757,-252.6001,13.236864832638933,0.4484154827204759,263.55918015031153,44.43493749999916,26.047616823589212
18:26:13:57,2.8254242,-0.16937256,12.881058,0.3298645,-0.26055908,0.27215576,60.825348,-45.6756585,-252.44979999999998,13.188379891912069,0.5007697876588343,263.6619686316427,44.43493749999915,26.047616928545303
18:26:13:58,2.9882355,-0.19093323,12.225052,0.42253113,-0.1955719,0.24234009,61.50055,-46.20056,-252.2995,12.58641741340571,0.5248901247974618,263.7647571129739,44.434937499999144,26.047617033501396
18:26:13:59,2.9642944,-0.11431885,11.391876,0.42466736,-0.107162476,0.19332886,61.650085,-47.6249685,-252.2995,11.771786138420655,0.47875067730575566,264.0565743328208,44.434937499999144,26.047617138457486
18:26:13:60,2.7799377,0.00061035156,10.683182,0.3287964,-0.016601562,0.1496582,61.79962,-49.049377,-252.2995,11.038950658171018,0.36163553661254005,264.3483915526677,44.43493749999914,26.047617243413576
18:26:13:61,2.7153015,0.06047058,10.347992,0.15835571,0.047302246,0.10385132,62.174987,-47.399902,-252.524565,10.698479207766484,0.19518998445614727,264.3559114382821,44.43493749999913,26.047617348369666
18:26:13:62,2.6410675,-0.12388611,10.455734,-0.024871826,0.07926941,0.060180664,62.550354,-45.750427,-252.74963,10.784848575040966,0.10258635099175363,264.3634313238965,44.43493749999912,26.047617453325756
18:26:13:63,2.3753204,-0.37287903,10.843597,-0.16868591,0.12187195,0.021820068,61.5005495,-46.5751645,-251.924895,11.106969959087804,0.20924584535147936,263.47559750025994,44.434937499999116,26.047617558281846
18:26:13:64,2.1358948,-0.63145447,11.26976,-0.25390625,0.12614441,0.0154418945,60.450745,-47.399902,-251.10016,11.487744417506423,0.28393528852374045,262.5877636766234,44.434937499999116,26.047617663237936
18:26:13:65,1.927597,-0.83735657,11.578613,-0.27734375,0.089920044,0.023956299,60.900369999999995,-47.00012133333333,-250.65002666666666,11.767798231763672,0.29253901319106457,262.1909927890179,44.43493749999911,26.047617768194026
18:26:13:66,1.800705,-0.957077,11.961685,-0.24751282,-0.008087158,0.048461914,61.349995,-46.60034066666667,-250.19989333333334,12.134267300508052,0.2523421393612505,261.7942219014124,44.4349374999991,26.047617873150116
18:26:13:67,1.7935333,-0.99298096,12.31842,-0.16122437,-0.12953186,0.08680725,61.79962,-46.20056,-249.74976,12.487843856388157,0.2242928863997229,261.3974510138069,44.434937499999094,26.04761797810621
18:26:13:68,1.9707031,-1.0648041,12.454895,-0.036590576,-0.24563599,0.11982727,63.00049,-45.44983,-249.74976,12.654718011111564,0.2757435121103392,261.55246396722515,44.43493749999909,26.0476180830623
18:26:13:69,2.1430817,-1.071991,12.323212,0.08378601,-0.32873535,0.13154602,62.85019,-45.300293499999995,-250.57526000000001,12.554023971376663,0.3638562644632946,262.27928251121705,44.43493749999908,26.04761818801839
18:26:13:70,2.2460327,-1.2802887,12.107742,0.17007446,-0.36921692,0.12408447,62.69989,-45.150757,-251.40076,12.380679237561282,0.4250216602171693,263.0061010552089,44.43493749999908,26.04761829297448
18:26:13:71,2.2412415,-1.3688812,11.995209,0.22332764,-0.33085632,0.11343384,62.325287,-45.52536,-250.50049,12.279333783015945,0.4149799697925884,262.1217357103891,44.43493749999907,26.04761839793057
18:26:13:72,2.1191406,-1.8357391,11.588196,0.2584839,-0.23391724,0.1027832,61.950684,-45.899963,-249.60022,11.922540897822628,0.36344956724512356,261.2373703655693,44.434937499999066,26.04761850288666
18:26:13:73,2.0401306,-2.1230469,11.322433,0.2819214,-0.12632751,0.10598755,61.500549500000005,-45.825195,-248.77548000000002,11.699014917681957,0.3266063017085901,260.32973348718133,44.43493749999906,26.04761860784275
18:26:13:74,1.9443665,-2.4438782,10.848389,0.29682922,-0.01234436,0.11663818,61.050415,-45.750427,-247.95074,11.288961229363775,0.3191620812429484,259.4220966087934,44.43493749999905,26.047618712798844
18:26:13:75,1.922821,-2.6042786,10.5946045,0.30110168,0.06541443,0.13475037,60.2249145,-46.0502625,-248.77548000000002,11.078138477915829,0.33630184591551704,260.0729405430811,44.43493749999905,26.047618817754934
18:26:13:76,1.8773193,-2.6880798,10.04393,0.29257202,0.08139038,0.13900757,59.399414,-46.350098,-249.60022,10.565539768995265,0.333984857981211,260.7237844773687,44.434937499999045,26.047618922711024
18:26:13:77,1.7240906,-2.7383575,9.806915,0.29257202,0.05583191,0.14433289,60.0746155,-46.0502625,-250.27542,10.326987557465129,0.3309797156879566,261.4723947876795,44.43493749999904,26.047619027667114
18:26:13:78,1.4966431,-2.7407532,9.560303,0.29789734,0.010025024,0.15072632,60.749817,-45.750427,-250.95062,10.057388434573701,0.3340086074130704,262.22100509799026,44.43493749999903,26.047619132623204
18:26:13:79,1.3649597,-2.6641388,9.287369,0.2861786,-0.06135559,0.1688385,60.599772333333334,-46.00016266666667,-250.30059666666665,9.757867260341808,0.3378892401430654,261.6084871150404,44.43493749999902,26.047619237579294
18:26:13:80,1.3506012,-2.5683746,9.241882,0.27020264,-0.09970093,0.17628479,60.44972766666667,-46.249898333333334,-249.65057333333334,9.6867463365823,0.33767746340432403,260.9959691320905,44.43493749999902,26.047619342535384
18:26:13:81,1.2835693,-2.5061188,9.306519,0.22546387,-0.18278503,0.19546509,60.299683,-46.499634,-249.00055,9.723141338321525,0.3499298862289214,260.3834511491407,44.434937499999016,26.047619447491474
18:26:13:82,1.2213135,-2.5300598,9.53157,0.20735168,-0.20622253,0.20825195,61.79962,-44.999695,-247.20001,9.936983240488951,0.35901438098943306,258.7508657497353,44.43493749999901,26.047619552447564
18:26:13:83,1.2715912,-2.5204926,9.766205,0.22120667,-0.1998291,0.23168945,61.049651499999996,-45.6001275,-247.575375,10.166050719359863,0.3775500778712691,259.0385665913964,44.434937499999,26.047619657403658
18:26:13:84,1.3912964,-2.51091,9.838028,0.2680664,-0.16148376,0.25299072,60.299683,-46.20056,-247.95074,10.248276422381325,0.40241881660630135,259.3262674330575,44.434937499998995,26.047619762359748
18:26:13:85,1.4990387,-2.4175415,9.677628,0.33944702,-0.093307495,0.26896667,60.24983733333333,-45.75042666666667,-247.90038666666666,10.087026699414647,0.44302780678073056,259.1874280819964,44.434937499998995,26.047619867315838
18:26:13:86,1.4511566,-2.27388,9.100616,0.4129486,-0.016601562,0.28175354,60.19999166666667,-45.300293333333336,-247.85003333333333,9.491975416718038,0.500187180368841,259.04858873093536,44.43493749999899,26.047619972271928
18:26:13:87,1.5014343,-2.111084,8.449402,0.44703674,0.016418457,0.2892151,60.150146,-44.85016,-247.79968,8.837611372417124,0.5326882640983359,258.90974937987426,44.43493749999898,26.047620077228018
18:26:13:88,1.6331177,-2.0416412,7.9537964,0.45661926,0.027069092,0.28068542,58.94928,-44.099426,-248.55042,8.372469730267388,0.536673261254209,259.22401175088754,44.43493749999897,26.047620182184108
18:26:13:89,1.5086212,-1.9554596,7.4270782,0.45343018,0.07287598,0.26683044,59.7000125,-45.599365,-247.57538,7.826956673013902,0.531138701570867,258.72858565555475,44.434937499998966,26.047620287140198
18:26:13:90,1.4798889,-1.8644714,6.8237305,0.41827393,0.10696411,0.26470947,60.450745,-47.099304,-246.60034,7.227006482243628,0.5064242340700313,258.2331595602219,44.434937499998966,26.04762039209629
18:26:13:91,1.5612946,-1.6705475,6.658539,0.34370422,0.06329346,0.2561798,59.7000125,-46.724700999999996,-248.10028,7.040206771982369,0.4333206005403159,259.42738038886364,44.43493749999896,26.04762049705238
18:26:13:92,1.6355133,-1.5292816,6.8716125,0.27552795,-0.025131226,0.22636414,58.94928,-46.350098,-249.60022,7.227216913634992,0.35747440975460776,260.6216012175054,44.43493749999895,26.04762060200847
18:26:13:93,1.6091766,-1.5125275,6.9937286,0.2552948,-0.051757812,0.21357727,58.94928,-46.350098,-249.60022,7.334127657649665,0.33685242506284596,260.6216012175054,44.434937499998945,26.047620706964562
18:26:13:94,1.7552185,-1.4023895,7.1206207,0.21374512,-0.1252594,0.1730957,58.94928,-46.350098,-249.60022,7.466640974743663,0.3022234520527227,260.6216012175054,44.43493749999894,26.047620811920652
18:26:13:95,1.7743683,-1.2276154,7.089493,0.17539978,-0.16680908,0.13475037,59.399415000000005,-45.525360500000005,-249.150085,7.410555541348506,0.27703431955198565,260.1489493380391,44.43493749999893,26.047620916876742
18:26:13:96,1.764801,-1.1031189,7.094284,0.11680603,-0.1955719,0.0942688,59.84955,-44.700623,-248.69995,7.393257695346092,0.24653320946154678,259.6762974585727,44.43493749999893,26.047621021832832
18:26:13:97,1.6642456,-0.98101807,7.027237,0.04649353,-0.17852783,0.050582886,58.9500435,-45.225525000000005,-247.049715,7.287946879948762,0.19129156482307003,257.9824728339273,44.434937499998924,26.047621126788922
18:26:13:98,1.5876312,-0.85173035,7.0200653,-0.05470276,-0.13058472,0.018630981,58.050537,-45.750427,-245.39948,7.247574368889818,0.14280012080568547,256.288648209282,44.43493749999892,26.047621231745012
18:26:13:99,1.5852356,-0.6985016,7.2594757,-0.16868591,-0.105026245,-0.012268066,58.55051666666667,-45.650228,-245.39948,7.463301134993845,0.19908780428421144,256.38547616891606,44.43493749999891,26.047621336701106
18:26:14:00,1.5732574,-0.6194916,7.8747864,-0.2613678,-0.11781311,-0.05593872,59.050496333333335,-45.550029,-245.39948,8.054264059164579,0.2920996339606582,256.48230412855014,44.4349374999989,26.047621441657196
18:26:14:01,1.44636535,-0.6003341799999999,8.3356707,-0.28585815,-0.12739563,-0.078308105,59.550476,-45.44983,-245.39948,8.484097255041256,0.3226091873664022,256.5791320881842,44.4349374999989,26.047621546613286
18:26:14:02,1.3194733,-0.58117676,8.796555,-0.29545593,-0.08265686,-0.11772156,59.550476,-45.44983,-246.1502,8.913930450917933,0.32861029923917184,257.297235117083,44.434937499998895,26.047621651569376
18:26:14:03,1.4224243,-0.4064026,9.052734,-0.28799438,-0.062408447,-0.12625122,59.45027666666667,-44.97477283333333,-245.87528833333334,9.172810193025539,0.32058532049990157,256.9291772951525,44.43493749999889,26.047621756525466
18:26:14:04,1.4032745,-0.36810303,9.174835,-0.28266907,-0.060287476,-0.13796997,59.35007733333334,-44.49971566666667,-245.60037666666668,9.288825353093385,0.320268786363761,256.561119473222,44.43493749999888,26.047621861481556
18:26:14:05,1.430809,-0.271736147,9.4573515,-0.28125000333333333,-0.061706543999999995,-0.14152018,59.249878,-44.0246585,-245.325465,9.570482773027337,0.32088894821058916,256.1930616512915,44.434937499998874,26.047621966437646
18:26:14:06,1.4583435,-0.175369264,9.739868,-0.2798309366666667,-0.063125612,-0.14507039,59.14967866666667,-43.549601333333335,-245.05055333333334,9.852140192961288,0.3215091100574173,255.82500382936095,44.434937499998874,26.04762207139374
18:26:14:07,1.485878,-0.07900238100000001,10.0223845,-0.27841187,-0.06454468,-0.1486206,59.04947933333334,-43.07454416666667,-244.77564166666667,10.13379761289524,0.32212927190424545,255.45694600743042,44.43493749999887,26.04762217634983
18:26:14:08,1.5134125,0.017364502,10.304901,0.017730713,0.0057678223,-0.16246033,58.94928,-42.599487,-244.50073,10.415455032829191,0.1635267708397669,255.0888881854999,44.43493749999886,26.04762228130592
18:26:14:09,1.5181885,0.06524658,9.864365,0.06567383,0.01109314,-0.15820312,59.39941433333333,-42.799886,-244.55057666666667,9.980723936216197,0.17165178961974994,255.27539281242588,44.43493749999885,26.04762238626201
18:26:14:10,1.7360611000000001,0.17658234,9.629738,0.0299835215,-0.0107498165,-0.148086545,59.84954866666667,-43.000285000000005,-244.60042333333334,9.790592807313239,0.15676701280834923,255.46189743935187,44.434937499998846,26.0476224912181
18:26:14:11,1.9539337,0.2879181,9.395111,-0.005706787,-0.032592773,-0.13796997,60.299683,-43.200684,-244.65027,9.600461678410278,0.14188223599694852,255.64840206627784,44.434937499998846,26.04762259617419
18:26:14:12,2.3441925,0.42437744,9.577072,-0.08453369,-0.060287476,-0.16139221,59.399414,-41.09955,-243.75,9.86892308115841,0.19190614882319634,254.22731146308,44.43493749999884,26.04762270113028
18:26:14:13,2.4591217,0.378891,9.835632,-0.11968994,-0.081588745,-0.18270874,59.024811,-42.224885,-243.524935,10.145466710049169,0.23316279445972127,254.11160376073906,44.43493749999883,26.04762280608637
18:26:14:14,2.6769867,0.15863037,10.766983,-0.17401123,-0.11248779,-0.27644348,58.650208,-43.35022,-243.29987,11.095915658860797,0.3454770740580443,253.99589605839807,44.434937499998824,26.04762291104246
18:26:14:15,2.5740356,-0.08798218,11.339203,-0.16975403,-0.07093811,-0.33078003,58.70005333333333,-42.800395,-243.14982333333333,11.628023254589488,0.3785024100298622,253.77147306453335,44.43493749999882,26.047623015998553
18:26:14:16,2.4591217,-0.25317383,11.535522,-0.16015625,-0.04536438,-0.3478241,58.74989866666667,-42.250569999999996,-242.99977666666666,11.79744227941344,0.38560284740605444,253.5470500706686,44.43493749999881,26.047623120954643
18:26:14:17,1.9970398,-0.48062134,11.954514,-0.09944153,0.0068206787,-0.35421753,58.799744,-41.700745,-242.84973,12.129697845018375,0.367974453061582,253.32262707680388,44.43493749999881,26.047623225910733
18:26:14:18,1.8701477,-0.56681824,11.84198,-0.039794922,0.01109314,-0.31692505,61.79962,-40.950012,-243.4494,12.002134212606189,0.31960629044114286,254.48714481345525,44.4349374999988,26.047623330866823
18:26:14:19,1.9623184,-0.496185305,11.785713,0.011871339000000002,-0.060279845,-0.268989565,61.349995,-40.75012133333333,-243.04962,11.958875506808841,0.2923120133628728,253.96410929688057,44.434937499998796,26.047623435822914
18:26:14:20,2.0544891,-0.42555237,11.729446,0.0635376,-0.13165283,-0.22105408,60.900369999999995,-40.55023066666667,-242.64983999999998,11.915616801011495,0.26501773628460285,253.4410737803059,44.43493749999879,26.047623540779004
18:26:14:21,2.4543304,-0.5931549,11.497208,0.1146698,-0.20410156,-0.18377686,60.450745,-40.35034,-242.25006,11.771209039135368,0.29762483783772686,252.91803826373123,44.43493749999878,26.047623645735094
18:26:14:22,2.9499207,-0.73680115,11.145264,0.14450073,-0.27760315,-0.16885376,60.0006105,-40.425109000000006,-242.32483,11.552567580439675,0.3556059084528729,252.8948382160965,44.43493749999878,26.047623750691187
18:26:14:23,3.3329926,-0.8206024,10.570663,0.14237976,-0.30955505,-0.18696594,59.550476,-40.499878,-242.3996,11.114006668619085,0.38865484399173994,252.87163816846177,44.434937499998775,26.047623855647277
18:26:14:24,3.3760986,-0.8253937,10.285751,0.1253357,-0.32980347,-0.20507812,59.550476,-39.9749755,-242.25006,10.857070974757539,0.4080887180764316,252.64519793125072,44.43493749999877,26.047623960603367
18:26:14:25,3.6203003,-0.6721649,9.498062,-0.03552246,-0.48106384,-0.27111816,59.550476,-39.450073,-242.10052,10.186832759538957,0.5533437629555273,252.41875769403964,44.43493749999876,26.047624065559457
18:26:14:26,3.7591705,-0.6553955,9.56749,-0.118621826,-0.5439148,-0.30308533,60.150146500000005,-38.8504025,-240.975185,10.300377226567505,0.6338573692273548,251.39085641967412,44.43493749999875,26.047624170515547
18:26:14:27,4.120697,-0.6553955,10.565872,-0.35935974,-0.62913513,-0.42771912,60.749817,-38.250732,-239.84985,11.359900446201685,0.84136441578341,250.3629551453086,44.43493749999875,26.047624275471637
18:26:14:28,4.0632324,-0.7918701,11.317657,-0.4509735,-0.58758545,-0.520401,59.549713499999996,-37.5,-241.124725,12.050986505731919,0.9052353061800852,251.19015958092697,44.434937499998746,26.047624380427727
18:26:14:29,3.907608,-0.9953766,11.674393,-0.47973633,-0.4650879,-0.60987854,58.34961,-36.749268,-242.3996,12.351179165405243,0.9046576891845945,252.01736401654534,44.43493749999874,26.047624485383817
18:26:14:30,3.5628357,-1.1294556,12.067032,-0.47973633,-0.2743988,-0.6833801,58.499909,-37.049866,-242.32483,12.632605806665142,0.8788913521245495,252.02454968915458,44.43493749999873,26.047624590339908
18:26:14:31,3.270752,-1.1438141,12.141251,-0.46376038,-0.15722656,-0.7089386,58.650208,-37.350464,-242.25006,12.626009075945724,0.8616193009659997,252.03173536176382,44.434937499998725,26.047624695296
18:26:14:32,2.5524902,-1.3760529,12.035904,-0.35084534,0.16448975,-0.7046814,58.3503725,-36.375427,-242.17529,12.380295347927305,0.8041922692744181,251.74942947168904,44.434937499998725,26.04762480025209
18:26:14:33,2.3441925,-1.5125275,11.442154,-0.2464447,0.32214355,-0.65675354,58.050537,-35.40039,-242.10052,11.777345459611368,0.7719045726430335,251.46712358161426,44.43493749999872,26.04762490520818
18:26:14:34,2.3394012,-1.5652008,10.630508,-0.14311218,0.44465637,-0.61520386,58.8005065,-35.700225,-240.975185,10.996833719618847,0.7724481683613659,250.60370840004742,44.43493749999871,26.04762501016427
18:26:14:35,2.3154602,-1.4885864,9.715927,-0.067489624,0.48939514,-0.5843048,59.550476,-36.00006,-239.84985,10.098340600186647,0.7651630883062257,249.74029321848062,44.4349374999987,26.04762511512036
18:26:14:36,2.3011017,-1.5125275,8.839645,-0.024871826,0.44465637,-0.56726074,58.8005065,-35.475158,-240.00015000000002,9.258624746582191,0.7211952871833668,249.63354656657594,44.434937499998696,26.04762522007645
18:26:14:37,2.1574402,-1.5077362,8.135757,-0.018478394,0.3296051,-0.555542,58.050537,-34.950256,-240.15045,8.550927354878855,0.646225879050684,249.5267999146713,44.434937499998696,26.04762532503254
18:26:14:38,2.0951996,-1.5125275,7.8484497,-0.030197144,0.26461792,-0.553421,58.2000735,-34.425353,-239.775085,8.262914951488154,0.6141736841740154,249.1279280928062,44.43493749999869,26.047625429988635
18:26:14:39,2.0497131,-1.52211,7.33609,-0.12394714,0.056900024,-0.5278473,58.34961,-33.90045,-239.39972,7.767648236919049,0.5451818764070118,248.72905627094113,44.43493749999868,26.047625534944725
18:26:14:40,2.1430817,-1.5723877,7.5300293,-0.22940063,-0.11141968,-0.5150604,57.8247075,-33.525085000000004,-240.000155,7.985395638967719,0.5747401236940565,249.13513314468793,44.434937499998675,26.047625639900815
18:26:14:41,2.243637,-1.5987244,8.38475,-0.31356812,-0.24990845,-0.5097351,57.299805,-33.14972,-240.60059,8.825749784433295,0.6485438084152426,249.5412100184347,44.43493749999867,26.047625744856905
18:26:14:42,2.2795563,-1.8261719,9.284973,-0.33699036,-0.31913757,-0.49269104,57.8247075,-32.39975,-240.37552,9.733550449036997,0.6768720353321712,249.34851657102172,44.43493749999866,26.047625849812995
18:26:14:43,2.3322296,-1.8668671,9.732681,-0.29171753,-0.303695675,-0.479377745,58.34961,-31.64978,-240.15045,10.180843144059315,0.6388695807861957,249.15582312360874,44.43493749999866,26.047625954769085
18:26:14:44,2.3489838,-1.8525085,10.424606,-0.2464447,-0.28825378,-0.46606445,57.899474999999995,-31.724548,-239.700315,10.845364119773512,0.6008671262402203,248.62656310076292,44.434937499998654,26.047626059725175
18:26:14:45,2.226883,-1.8285675,10.465317,-0.16122437,-0.2147522,-0.43623352,57.44934,-31.799316,-239.25018,10.854746745467361,0.5122611529857864,248.0973030779171,44.43493749999865,26.047626164681265
18:26:14:46,2.1023865,-1.7495575,10.446167,-0.08453369,-0.08584595,-0.39682007,56.774902,-31.499481000000003,-239.925385,10.798304748111043,0.4147066913268021,248.55700856760214,44.43493749999864,26.047626269637355
18:26:14:47,2.0784302,-1.5316772,10.230682,-0.016357422,0.06222534,-0.33929443,56.100464,-31.199646,-240.60059,10.551434088615437,0.34534080040103365,249.01671405728717,44.43493749999863,26.04762637459345
18:26:14:48,2.1790009,-1.2754974,9.850006,0.042236328,0.14105225,-0.28497314,56.100464,-30.825043,-240.75012500000003,10.168458916652197,0.3207636749297615,249.11487526236652,44.43493749999863,26.04762647954954
18:26:14:49,2.2627869,-1.0097504,9.426224,0.09869385,0.15489197,-0.24555969,56.100464,-30.45044,-240.89966,9.746460861424918,0.3066456582950417,249.21303646744587,44.434937499998625,26.04762658450563
18:26:14:50,2.3609467,-0.6721649,8.609802,0.15621948,0.1485138,-0.2263794,56.475067,-30.45044,-240.374755,8.952908211985472,0.3125836007634924,248.7909222669237,44.43493749999862,26.04762668946172
18:26:14:51,2.3513794,-0.6194916,8.288986,0.18391418,0.11442566,-0.21679688,56.84967,-30.45044,-239.84985,8.638289404356103,0.30646132618854605,248.36880806640153,44.43493749999861,26.047626829403175
18:26:14:52,2.226883,-0.46865845,7.781418,0.17112732,0.07287598,-0.22105408,55.999755666666665,-30.350240333333332,-239.84985,8.107349426857672,0.2888950923708971,248.1661599094109,44.434937499998604,26.047626969344627
18:26:14:53,2.188568,-0.4925995,7.5587463,0.13651275499999999,0.082992555,-0.22318268,55.149841333333335,-30.250040666666667,-239.84985,7.884613483601333,0.2765627649434246,247.96351175242032,44.4349374999986,26.047627109286083
18:26:14:54,2.1071625,-0.4566803,7.142166,0.10189819,0.09310913,-0.22531128,54.299927,-30.149841,-239.84985,7.460511099741782,0.264230437515952,247.7608635954297,44.43493749999859,26.047627249227535
18:26:14:55,2.0090027,-0.38246155,6.9147186,0.041168213,0.13465881,-0.22851562,55.65033,-28.050232,-237.75024,7.210804532298851,0.26841610506117897,245.78232516684417,44.43493749999858,26.04762738916899
18:26:14:56,1.81987,-0.26515198,6.8285217,-0.023803711,0.16555786,-0.22744751,55.95042,-28.350321333333333,-238.10017666666667,7.0718414148486675,0.28232674593518625,246.22367856788637,44.43493749999857,26.047627529110443
18:26:14:57,1.7899399,-0.156211855,6.86443335,-0.0866546655,0.136795045,-0.227981565,56.25051,-28.65041066666667,-238.45011333333332,7.096630967736813,0.2879985541354094,246.66503196892856,44.43493749999856,26.0476276690519
18:26:14:58,1.7600098,-0.04727173,6.900345,-0.14950562,0.10803223,-0.22851562,56.5506,-28.9505,-238.80005,7.121420520624957,0.29367036233563254,247.10638536997075,44.434937499998554,26.04762780899335
18:26:14:59,1.448761,0.06285095,7.197235,-0.21981812,0.010025024,-0.19654846,53.849792,-28.649902,-239.10065,7.341869674835008,0.2950454272055518,246.75846046990034,44.43493749999855,26.047627948934807
18:26:14:60,1.3625641,0.06524658,7.2786255,-0.26242828500000004,-0.051231383,-0.152877805,54.450226,-28.649902,-237.975315,7.405351255143861,0.3190075237818477,245.8019661513697,44.43493749999854,26.04762808887626
18:26:14:61,1.2452545,0.07003784,7.755081,-0.30503845,-0.11248779,-0.10920715,55.05066,-28.649902,-236.84998,7.8547339474588895,0.34296962035814355,244.84547183283908,44.43493749999853,26.047628228817715
18:26:14:62,1.175827,0.23524475,8.248276,-0.32740784,-0.15934753,-0.04208374,55.200195,-28.424835,-237.599945,8.334984475000992,0.36654954669587864,245.5786321651729,44.434937499998526,26.047628368759167
18:26:14:63,1.3075027499999998,0.31903839,8.5272065,-0.34338378999999997,-0.191841125,0.003723145000000004,55.34973,-28.199768,-238.34991,8.633518358730228,0.3965344233067084,246.31179249750676,44.43493749999852,26.047628508700623
18:26:14:64,1.4391785,0.40283203,8.806137,-0.35935974,-0.22433472,0.04953003,54.299926,-27.600097499999997,-237.525175,8.932052242459465,0.4265192999175382,245.21294935035706,44.43493749999851,26.047628648642075
18:26:14:65,1.6498718,0.60154724,9.296951,-0.36575317,-0.25949097,0.099594116,53.250122,-27.000427,-236.70044,9.46135476212513,0.4593799438573818,244.11410620320737,44.4349374999985,26.04762878858353
18:26:14:66,1.927597,0.73083496,9.782974,-0.3487091,-0.2701416,0.13261414,54.150391,-26.1001585,-236.250305,9.997816272458861,0.4606094121935738,243.78146498606978,44.43493749999849,26.047628928524983
18:26:14:67,2.1263275,0.7930908,10.120544,-0.31036377,-0.23072815,0.15072632,55.05066,-25.19989,-235.80017,10.371869287174656,0.41506574475831876,243.4488237689322,44.43493749999848,26.04762906846644
18:26:14:68,2.13350675,0.784713735,10.343208,-0.22834015,-0.14604187,0.17362976,54.150391,-25.499724999999998,-236.47537,10.590166464488581,0.333824532909189,243.93487138009743,44.434937499998476,26.04762920840789
18:26:14:69,2.140686,0.77633667,10.565872,-0.14631653,-0.06135559,0.1965332,53.250122,-25.79956,-237.15057,10.808463641802506,0.2525833210600593,244.42091899126265,44.43493749999847,26.047629348349346
18:26:14:70,2.1023865,0.72843933,10.506012,-0.06535339,-0.017669678,0.23274231,53.450012,-25.499470666666667,-236.80063666666666,10.739038178394614,0.2423886671634049,244.094161539908,44.43493749999846,26.0476294882908
18:26:14:71,2.0544891,0.7715454,10.383911,-0.0110244735,-0.076263429,0.27056122,53.649902,-25.19938133333333,-236.45070333333334,10.613284855415921,0.2908705239855932,243.76740408855335,44.434937499998455,26.047629628232254
18:26:14:72,2.1670227,0.81703186,10.376724,0.043304443,-0.13485718,0.30838013,53.849792,-24.899292,-236.10077,10.6320237685375,0.33935238080778146,243.44064663719868,44.43493749999845,26.047629768173707
18:26:14:73,2.3034973,0.8002777,10.453339,0.06781006,-0.18598938,0.3222351,51.449585,-23.550415,-234.1507,10.734003934094005,0.378187405107571,240.89049826390922,44.43493749999844,26.047629908115162
18:26:14:74,2.6710052500000003,0.61951446,10.662834499999999,0.120536805,-0.27333832,0.33395385,51.449585,-23.775482500000003,-234.6756,11.015732460010128,0.4534821968551025,241.42289313821794,44.43493749999843,26.047630048056615
18:26:14:75,3.0385132,0.43875122,10.87233,0.17326355,-0.36068726,0.3456726,51.449585,-24.00055,-235.2005,11.29746098592625,0.528776988602634,241.95528801252667,44.43493749999842,26.04763018799807
18:26:14:76,3.1869507,0.33580017,10.948944,0.18817139,-0.39263916,0.33181763,51.525116,-24.225617,-235.500335,11.40827731226492,0.5474275491413038,242.28529307559796,44.43493749999841,26.047630327939522
18:26:14:77,3.4120026,-0.025726318,11.059082,0.18391418,-0.38198853,0.3222351,51.600647,-24.450684,-235.80017,11.573492051605195,0.5325177202015378,242.61529813866926,44.434937499998405,26.04763046788098
18:26:14:78,3.5963593,-0.36810303,11.10936,0.17326355,-0.36494446,0.31584167,52.2750855,-24.975586,-234.975435,11.6827727729761,0.5127969160902618,242.0143983530374,44.4349374999984,26.04763060782243
18:26:14:79,3.8812714,-0.5644226,11.336807,0.10189819,-0.29144287,0.28282166,52.949524,-25.500488,-234.1507,11.996084090531282,0.4187007033243061,241.41349856740553,44.43493749999839,26.047630747763886
18:26:14:80,3.9734497,-0.7834930499999999,11.5738295,0.058219908,-0.205162048,0.23381805499999997,51.599884,-24.750519,-233.92563,12.263636382034903,0.31946459428179497,240.82863026992823,44.434937499998384,26.04763088770534
18:26:14:81,4.065628,-1.0025635,11.810852,0.014541626,-0.118881226,0.18481445,50.250244,-24.00055,-233.70056,12.531188673538527,0.22022848523928382,240.2437619724509,44.43493749999838,26.047631027646794
18:26:14:82,4.0560455,-1.1940918,11.906616,0.006011963,-0.053894043,0.1581726,51.2252805,-23.775482500000003,-233.55025999999998,12.635064894821612,0.16721029561829984,240.2832687836106,44.43493749999837,26.047631167588246
18:26:14:83,3.6131134,-1.4143677,11.715088,-0.00036621094,0.06967163,0.10810852,52.200317,-23.550415,-233.39996,12.340920195828463,0.12861462682719985,240.32277559477026,44.43493749999836,26.047631307529702
18:26:14:84,3.3952484,-1.3904266,11.607346,-0.03552246,0.1804657,0.0665741,51.374816499999994,-23.699951,-233.325195,12.1733922548896,0.1956063005931854,240.08823474315446,44.434937499998355,26.047631447471154
18:26:14:85,2.717682,-1.4861908,11.355957,-0.08558655,0.18579102,0.064437866,50.549316,-23.849487,-233.25043,11.770824862046739,0.21446584629767243,239.85369389153865,44.43493749999834,26.04763158741261
18:26:14:86,2.540512,-1.5436554,11.34877,-0.12927246,0.17300415,0.097457886,50.249481,-23.175048500000003,-234.075165,11.731651790306136,0.23693848225913638,240.5286790275286,44.434937499998334,26.047631727354062
18:26:14:87,2.2939148,-1.6537781,11.432571,-0.15696716,0.14744568,0.15605164,49.949646,-22.50061,-234.8999,11.777126423017613,0.26595306393387835,241.2036641635185,44.43493749999833,26.047631867295518
18:26:14:88,2.1191406,-1.6705475,11.650436,-0.15164185,0.10482788,0.2284851,49.69991066666667,-22.000630333333334,-234.65016666666668,11.95885215321356,0.29358061247079464,240.86371222264265,44.43493749999832,26.04763200723697
18:26:14:89,2.0760498,-1.6681519,11.791702,-0.082397463,0.00202941999999999,0.31104277999999996,49.450175333333334,-21.50065066666667,-234.40043333333332,12.088711659658264,0.3500442883261518,240.5237602817668,44.43493749999831,26.047632147178426
18:26:14:90,1.8869019,-1.8261719,12.337585,-0.013153076,-0.10076904,0.39360046,49.20044,-21.000671,-234.1507,12.613933019514501,0.406507964181509,240.18380834089095,44.434937499998306,26.047632287119878
18:26:14:91,2.0113983,-1.8955994,12.378281,0.045440674,-0.15934753,0.4468689,48.599243,-21.150208,-232.8003,12.683093499674447,0.4766007804839237,238.7576122319586,44.4349374999983,26.047632427061334
18:26:14:92,2.4555206500000004,-1.99017335,11.92099,0.18551635700000002,-0.196632385,0.512916565,49.0493765,-21.0754395,-233.25043,12.345097690632748,0.5904108243745192,239.28208110983002,44.43493749999829,26.047632567002786
18:26:14:93,2.899643,-2.0847473,11.463699,0.32559204,-0.23391724,0.57896423,49.49951,-21.000671,-233.70056,12.00710188159105,0.7042208682651148,239.80654998770143,44.434937499998284,26.047632706944242
18:26:14:94,3.033722,-2.067978,11.135696,0.35435486,-0.21582031,0.5778961,48.075103,-19.425201,-234.000395,11.72534552097225,0.7114138566329206,239.68588862382381,44.43493749999828,26.047632846885694
18:26:14:95,3.088791,-2.0440369,10.019989,0.37886047,-0.13378906,0.54273987,46.650696,-17.849731,-234.30023,10.682644628104205,0.6752787089727629,239.56522725994623,44.43493749999826,26.04763298682715
18:26:14:96,2.9618988,-1.9889679,9.486084,0.32453918,-0.10183716,0.5011902,45.900472,-18.44991033333333,-234.30023,10.134822517623476,0.6057128883290978,239.46957657214045,44.434937499998256,26.047633126768606
18:26:14:97,2.875702,-1.9841766,9.342438,0.28511047,-0.10076904,0.48202515,45.150248000000005,-19.05008966666667,-234.30023,9.974355445673448,0.5690260317056374,239.3739258843347,44.43493749999825,26.047633266710058
18:26:14:98,2.7655792,-2.0105133,9.354401,0.17752075,-0.11567688,0.43515015,44.400024,-19.650269,-234.30023,9.959689257690247,0.48399422547394033,239.27827519652894,44.43493749999824,26.047633406651514
18:26:14:99,2.65065,-2.0536194,9.663254,0.1572876,-0.116744995,0.42236328,45.899963,-19.650269,-233.5495,10.22847867138962,0.4655744014265265,238.82694283816414,44.434937499998235,26.047633546592966
18:26:15:00,2.6219177,-2.1015015,9.7925415,0.15942383,-0.12313843,0.40213013,45.899963,-19.1253665,-234.674835,10.353001014647772,0.44976401809009875,239.88598284435034,44.43493749999823,26.04763368653442
18:26:15:01,2.5764313,-2.1853027,10.113373,0.20202637,-0.13485718,0.38613892,45.899963,-18.600464,-235.80017,10.662732275142988,0.4561845884197489,240.9450228505365,44.43493749999822,26.047633826475874
18:26:15:02,2.51058965,-2.20565035,9.939789,0.24356842,-0.142845155,0.37602234,44.550323500000005,-18.825530999999998,-234.975435,10.486718210454901,0.4719804029864174,239.90426462842134,44.43493749999821,26.04763396641733
18:26:15:03,2.444748,-2.225998,9.766205,0.28511047,-0.15083313,0.36590576,43.200684,-19.050598,-234.1507,10.310704145766815,0.487776217553086,238.86350640630616,44.434937499998206,26.04763410635878
18:26:15:04,2.3872833,-2.135025,9.435806,0.3096161,-0.17852783,0.36376953,43.0503845,-18.4501645,-234.22546499999999,9.964531508039897,0.5099633187006098,238.8633528405946,44.4349374999982,26.047634246300237
18:26:15:05,2.5429077,-1.9099579,9.160477,0.2829895,-0.1678772,0.35632324,42.900085,-17.849731,-234.30023,9.696837506013015,0.48500728113522956,238.86319927488304,44.434937499998185,26.04763438624169
18:26:15:06,2.5620728,-1.7136383,9.229904,0.2627411,-0.12207031,0.32756042,42.224884,-18.2998655,-234.375,9.730976369560391,0.43729838207256444,238.85169144620437,44.43493749999818,26.047634526183145
18:26:15:07,2.456726,-1.7256165,9.182022,0.2584839,-0.056030273,0.2977295,41.549683,-18.75,-234.44977,9.66037178128421,0.39824135046716896,238.8401836175257,44.43493749999817,26.047634666124598
18:26:15:08,2.3011017,-1.787857,8.997665,0.27127075,0.008956909,0.28175354,41.549683,-18.75,-234.59981333333334,9.457773371064507,0.39122001907740916,238.98747396160363,44.43493749999816,26.047634806066053
18:26:15:09,2.20892335,-1.8129959,8.8037335,0.29524231,0.0728759745,0.28175354,41.549683,-18.75,-234.74985666666666,9.25624903620621,0.419214255401518,239.13476430568156,44.434937499998156,26.047634946007506
18:26:15:10,2.116745,-1.8381348,8.609802,0.31921387,0.13679504,0.28175354,41.549683,-18.75,-234.8999,9.054724701347913,0.44720849172562693,239.2820546497595,44.43493749999815,26.04763508594896
18:26:15:11,2.0568848,-1.6226654,8.442215,0.37034607,0.16235352,0.2785492,41.85028,-17.399597,-235.04944,8.839389808524862,0.49102396463052117,239.37926216812187,44.43493749999814,26.047635225890414
18:26:15:12,2.0473175,-1.5292816,8.039993,0.4449005,0.1804657,0.27322388,40.800475,-18.0747985,-235.350035,8.436332058303172,0.5524089177221837,239.54673108740428,44.434937499998135,26.04763536583187
18:26:15:13,1.9778748,-1.5173187,7.6904297,0.47473145,0.17088318,0.2700348,39.75067,-18.75,-235.65063,8.084364769880613,0.5722672487894576,239.71420000668672,44.43493749999813,26.04763550577332
18:26:15:14,1.9802704,-1.4287262,6.948227,0.48112488,0.10057068,0.27749634,40.275573,-17.099762,-235.65063,7.364820965591194,0.5644464815587678,239.68466992472045,44.43493749999812,26.047635645714777
18:26:15:15,2.1119537,-1.2778931,6.601074,0.44596863,0.04197693,0.2753601,40.800476,-15.449524,-235.65063,7.047519929694935,0.5258072520119057,239.65513984275418,44.434937499998114,26.04763578565623
18:26:15:16,2.3489838,-1.1438141,6.364044,0.3841858,-0.016601562,0.2561798,39.8254395,-16.049957,-236.849975,6.879468847371666,0.4620632323724967,240.71395051579816,44.4349374999981,26.047635925597685
18:26:15:17,2.535736,-0.9762268,6.232361,0.3021698,-0.060287476,0.20397949,38.850403,-16.65039,-238.04932,6.798918992093908,0.3695251008188086,241.77276118884217,44.43493749999809,26.047636065539137
18:26:15:18,2.6410675,-0.8756714,6.0647736,0.18711853,-0.10821533,0.12942505,38.850403,-16.65039,-238.04932,6.672594454902168,0.2519419486387138,241.77276118884217,44.434937499998085,26.047636205480593
18:26:15:19,2.5812225,-0.8708801,6.1365967,0.1104126,-0.13485718,0.095336914,38.850403,-16.65039,-238.04932,6.71408674367059,0.19866184436714512,241.77276118884217,44.43493749999808,26.047636345422045
18:26:15:20,2.4255981,-0.9259491,6.739929,-0.09944153,-0.18385315,0.017562866,38.850403,-16.65039,-238.04932,7.222710765602858,0.20975951209849186,241.77276118884217,44.43493749999807,26.0476364853635
18:26:15:21,2.2627869,-0.9953766,8.020828,-0.16868591,-0.17852783,-0.009063721,39.000447666666666,-16.750081,-237.84942999999998,8.393131771646575,0.2457829801987982,241.60720494370693,44.434937499998064,26.047636625304953
18:26:15:22,2.1550522,-0.9570694,8.585861,-0.18040466,-0.17320251,-0.017593384,39.15049233333333,-16.849772,-237.64954,8.907576762620089,0.25070795356467485,241.44164869857173,44.43493749999806,26.04763676524641
18:26:15:23,2.0473175,-0.9187622,9.150894,-0.1399231,-0.10928345,-0.03250122,39.300537,-16.949463,-237.44965,9.422021753593603,0.18049286872062534,241.2760924534365,44.43493749999805,26.04763690518786
18:26:15:24,2.0568848,-0.8900299,9.304123,-0.104766846,-0.091171265,-0.035705566,38.40027,-15.600586,-235.49957,9.570247285336679,0.14339867163216086,239.1192306984137,44.43493749999804,26.047637045129317
18:26:15:25,1.9371796,-0.937912,9.368774,0.006011963,-0.09437561,-0.03996277,37.649536,-14.8498535,-236.54938,9.612818004387485,0.10266412444499962,239.98669731543697,44.43493749999803,26.04763718507077
18:26:15:26,1.9180298,-0.937912,9.143707,0.061416626,-0.105026245,-0.023986816,37.649536,-14.8498535,-236.54938,9.38966958605472,0.12400758617859538,239.98669731543697,44.43493749999802,26.047637325012225
18:26:15:27,2.1275177,-0.73680115,8.871970999999998,0.058753968000000004,-0.10556030250000001,-0.01279449445,37.649536,-14.8498535,-236.54938,9.158930483286767,0.12201382399940303,239.98669731543697,44.434937499998014,26.047637464953677
18:26:15:28,2.3370056,-0.5356903,8.600235,0.05609131,-0.10609436,-0.0016021729,37.649536,-14.8498535,-236.54938,8.928191380518815,0.12002006182021069,239.98669731543697,44.43493749999801,26.047637604895133
18:26:15:29,2.4543304,-0.42077637,8.62178,0.035842896,-0.1252594,-0.011199951,37.274933,-14.099884249999999,-236.024475,8.974178560420699,0.13076723360394688,239.36660995898416,44.434937499998,26.047637744836585
18:26:15:30,2.6961365,-0.27471924,8.964157,-0.025939941,-0.19238281,-0.078308105,36.90033,-13.349915,-235.49957,9.364866972258998,0.20932316028397477,238.74652260253137,44.43493749999799,26.04763788477804
18:26:15:31,2.7440186,-0.3154297,9.395111,-0.06109619,-0.21368408,-0.12944031,34.950256,-12.89978,-236.10077,9.79271385649091,0.25719335981097685,239.02196198907507,44.434937499997986,26.047638024719493
18:26:15:32,2.6243134,-0.47583008,9.919434,-0.081329346,-0.21047974,-0.16778564,35.3248595,-12.525177,-236.85074,10.271738215453526,0.2811906905668552,239.79833018338815,44.43493749999798,26.04763816466095
18:26:15:33,2.5620728,-0.6913147,10.443771,-0.083465576,-0.1678772,-0.18377686,35.699463,-12.150574,-237.60071,10.77564317093773,0.2625322664517856,240.57469837770125,44.43493749999797,26.0476383046024
18:26:15:34,2.5429077,-0.7679291,10.640091,-0.07281494,-0.13697815,-0.18482971,35.174561499999996,-12.150574,-237.60071,10.966659982037699,0.2413028196339823,240.49792773661113,44.434937499997964,26.047638444543857
18:26:15:35,2.4974213,-0.933136,10.881912,-0.02168274,-0.072006226,-0.16992188,34.64966,-12.150574,-237.60071,11.203743335150698,0.18581841431732504,240.42115709552098,44.43493749999795,26.04763858448531
18:26:15:36,2.6650238,-1.0456543,10.992035,0.020935059,-0.10821533,-0.15713501,33.8249215,-12.075043,-236.775205,11.358722560697569,0.191938129901389,239.48469696450005,44.43493749999794,26.047638724426765
18:26:15:37,2.777542,-1.1103058,10.920212,0.06248474,-0.14125061,-0.15074158,33.000183,-11.999512,-235.9497,11.322479792705378,0.21582192080309195,238.5482368334791,44.434937499997936,26.047638864368217
18:26:15:38,2.791916,-1.0600281,10.625732,0.084854126,-0.12207031,-0.13902283,33.249918666666666,-11.899821,-236.34999,11.037419764585815,0.20354048870907446,238.97402179957336,44.43493749999793,26.047639004309673
18:26:15:39,2.839798,-0.96424866,10.472504,0.057144165,-0.11035156,-0.14115906,33.49965433333333,-11.80013,-236.75028,10.893464471376028,0.18806595281460284,239.3998067656676,44.43493749999792,26.047639144251125
18:26:15:40,2.9044342,-0.7224426,10.362366,-0.0014343262,-0.0975647,-0.1486206,33.74939,-11.700439,-237.15057,10.785930207932017,0.17778923117584486,239.82559173176185,44.434937499997915,26.04763928419258
18:26:15:41,3.021759,-0.71525574,10.429398,-0.03126526,-0.10076904,-0.15287781,32.849884,-11.399840999999999,-237.97530999999998,10.881863850925905,0.18575128719819226,240.50454903490822,44.43493749999791,26.047639424134037
18:26:15:42,3.3928528,-0.9905853,10.544327,-0.11009216,-0.067733765,-0.19548035,31.950378,-11.099243,-238.80005,11.120950554785004,0.23435168838876183,241.18350633805463,44.4349374999979,26.04763956407549
18:26:15:43,3.2228699,-1.2731018,10.726288,-0.15483093,-0.03152466,-0.21891785,33.000183,-10.2005005,-236.70044,11.272130803199245,0.2699841590193821,239.2073589684849,44.43493749999789,26.047639704016945
18:26:15:44,2.29870605,-1.79982755,11.2398375,-0.27999878,0.244911195,-0.1161193865,32.0251465,-10.2005005,-236.925505,11.666080378552223,0.4651966341416765,239.29970322019147,44.434937499997886,26.047639843958397
18:26:15:45,1.3745422,-2.3265533,11.753387,-0.40516663,0.52134705,-0.013320923,31.05011,-10.2005005,-237.15057,12.060029953905204,0.6604091092639709,239.39204747189805,44.43493749999788,26.047639983899852
18:26:15:46,1.3242645,-2.2044525,12.330399,-0.5021057,0.68966675,0.08999634,31.8748475,-10.87493875,-237.599945,12.595714620056993,0.8578168226617197,239.97707972641115,44.43493749999787,26.047640123841305
18:26:15:47,2.7009277,-1.0097504,14.956833,-0.6661682,0.9698334,0.24659729,32.699585,-11.549377,-238.04932,15.23225064462952,1.2021510378825715,240.56211198092427,44.43493749999786,26.04764026378276
18:26:15:48,3.6370697,-0.39204407,16.599258,-0.52874756,0.9559784,0.18800354,31.64978,-10.949706666666666,-237.59969333333333,16.997568670431786,1.1085188381462199,239.95375899093514,44.43493749999785,26.047640403724213
18:26:15:49,4.022522,-0.29626465,16.92247,-0.3625641,0.9293518,0.13475037,30.599975,-10.350036333333334,-237.15006666666665,17.396506743717936,1.0066305960913302,239.34540600094604,44.434937499997844,26.04764054366567
18:26:15:50,4.27153,-0.5237274,15.253723,0.27340698,0.7003174,-0.087890625,29.55017,-9.750366,-236.70044,15.849174246349232,0.756915186410189,238.7370530109569,44.43493749999784,26.04764068360712
18:26:15:51,3.8477478,-0.6338501,12.837967,0.59191895,0.4776764,-0.20187378,29.35028,-9.200032333333333,-237.75024333333332,13.417165340516746,0.7869534989677287,239.733522175914,44.43493749999783,26.047640823548576
18:26:15:52,3.62509155,-0.78229523,11.067459,0.676071175,0.2646255535,-0.27431488000000004,29.15039,-8.649698666666668,-238.80004666666667,11.680406819522403,0.8120574698877836,240.72999134087112,44.43493749999782,26.04764096349003
18:26:15:53,3.4024353,-0.93074036,9.296951,0.7602234,0.051574707,-0.34675598,28.9505,-8.099365,-239.84985,9.943648298528062,0.8371614408078386,241.72646050582821,44.434937499997815,26.047641103431484
18:26:15:54,3.349762,-0.97862244,8.791763,0.7474365,-0.025131226,-0.37445068,28.85030066666667,-8.599344666666667,-239.69980666666666,9.459054074530103,0.8363648795860424,241.58396127719442,44.43493749999781,26.047641243372937
18:26:15:55,3.2061005,-1.0671997,8.367996,0.67181396,-0.23924255,-0.4298401,28.750101333333333,-9.099324333333334,-239.54976333333335,9.02448628298566,0.8326665035591345,241.4414620485606,44.4349374999978,26.047641383314392
18:26:15:56,2.9499207,-1.3233795,8.3177185,0.55888367,-0.45655823,-0.45648193,28.649902,-9.599304,-239.39972,8.924001707897135,0.853915760710579,241.2989628199268,44.434937499997794,26.047641523255844
18:26:15:57,2.6769867,-2.0224915,9.009644,0.29577637,-0.5268707,-0.4458313,26.69983,-10.049438,-240.89966,9.61407378098822,0.7508940961470911,242.5830132434263,44.43493749999779,26.0476416631973
18:26:15:58,2.4591217,-2.1493835,9.584244,0.104019165,-0.3202057,-0.36273193,26.9248965,-10.049438,-241.275025,10.125456138713908,0.4949001212783364,242.98068309416007,44.43493749999778,26.047641803138752
18:26:15:59,2.5548859,-2.139801,10.094208,-0.029129028,-0.018737793,-0.2689972,27.149963,-10.049438,-241.65039,10.630109379911564,0.27121780687590485,243.37835294489383,44.43493749999777,26.047641943080208
18:26:15:60,2.5764313,-2.1062927,10.26181,-0.07388306,0.12826538,-0.23916626,26.750183,-9.799702666666667,-241.15041,10.787919709461736,0.2812671580257738,242.82805727299032,44.43493749999776,26.04764208302166
18:26:15:61,2.619522,-1.7758942,10.666428,-0.08453369,0.3764801,-0.18482971,26.350403,-9.549967333333333,-240.65043,11.126022739382732,0.4278378573007655,242.27776160108678,44.43493749999775,26.047642222963116
18:26:15:62,2.6530457,-1.6777191,10.587418,0.019866943,0.37327576,-0.14968872,25.950623,-9.300232,-240.15045,11.042953082011953,0.4026613978555447,241.72746592918327,44.434937499997744,26.04764236290457
18:26:15:63,2.7344513,-1.625061,10.352783,0.09336853,0.33918762,-0.13264465,25.424957499999998,-9.075164999999998,-240.90042,10.830427646722066,0.37597942381099503,242.4092079563236,44.43493749999774,26.047642502846024
18:26:15:64,2.9331665,-1.2132568,9.344833,0.30003357,0.080337524,-0.101745605,24.899292,-8.850098,-241.65039,9.86921281447297,0.3268431260195195,243.09094998346393,44.43493749999773,26.047642642787476
18:26:15:65,3.0457,-1.0456543,8.626572,0.39697266,-0.118881226,-0.09321594,25.349426,-9.300232,-241.57486,9.208008789976935,0.4247461008094392,243.08005168060726,44.43493749999772,26.047642782728932
18:26:15:66,3.0624542,-0.89482117,8.130966,0.4449005,-0.23072815,-0.07723999,25.79956,-9.750366,-241.49933,8.734525673815025,0.5070877144615836,243.0691533777506,44.434937499997716,26.047642922670384
18:26:15:67,3.1654053,-0.7559509,7.956192,0.4544983,-0.26800537,-0.068725586,24.974822500000002,-8.9248655,-241.79992499999997,8.596059772787932,0.532089080157421,243.2529895350639,44.43493749999771,26.04764306261184
18:26:15:68,3.0409088,-0.68891907,7.676071,0.4406433,-0.17001343,-0.050613403,24.150085,-8.099365,-242.10052,8.285155509220578,0.4750082112748108,243.4368256923772,44.4349374999977,26.047643202553292
18:26:15:69,2.8014832,-0.7391968,7.307358,0.39271545,0.016418457,-0.023986816,23.850250000000003,-9.149932750000001,-243.67523,7.860801547499878,0.393789737983078,245.01298422620346,44.434937499997694,26.047643342494748
18:26:15:70,2.6889648,-0.6003418,6.852463,0.31921387,0.19325256,-0.0048065186,23.550415,-10.2005005,-245.24994,7.385607025751863,0.3731851408724397,246.58914276002974,44.43493749999769,26.0476434824362
18:26:15:71,2.65304565,-0.3968277,6.705223200000001,0.249969485,0.285926815,0.0079803467,23.25058,-10.87493875,-244.34967,7.22458307634046,0.39661138451570166,245.69528131004668,44.43493749999768,26.047643622377656
18:26:15:72,2.6171265,-0.1933136,6.5579834,0.1807251,0.37860107,0.020767212,22.950745,-11.549377,-243.4494,7.063559126929056,0.42003762815896367,244.80141986006362,44.43493749999767,26.047643762319108
18:26:15:73,2.6602325,-0.06642151,6.3975677,0.15089417,0.3807373,0.025024414,22.5006105,-10.4995725,-243.75,6.928933629869045,0.41031227552599775,245.01414411185425,44.43493749999766,26.047643902260564
18:26:15:74,2.6889648,0.08680725,6.256302,0.12106323,0.3477173,0.0154418945,22.050476,-9.449768,-244.0506,6.810240958255119,0.36851333555662813,245.22686836364485,44.43493749999765,26.047644042202016
18:26:15:75,2.712906,0.24960327,6.1605377,0.082717896,0.28059387,-0.0037384033,22.5006105,-9.749603,-244.72504,6.736051180799621,0.29255622683422267,245.95101227994434,44.434937499997645,26.047644182143472
18:26:15:76,2.815857,0.35734558,6.2898254,0.03904724,0.1889801,-0.03250122,22.950745,-10.049438,-245.39948,6.900626788233058,0.19568979137685238,246.6751561962438,44.43493749999764,26.047644322084924
18:26:15:77,2.8565521,0.5009918,6.510086,-0.008895874,0.10270691,-0.078308105,22.050476333333336,-10.399373,-245.24943333333334,7.126857821724638,0.1294604389173117,246.46191384349083,44.43493749999763,26.04764446202638
18:26:15:78,2.6171340499999998,0.4507141,6.8776015,-0.031265259000000004,0.03346252500000001,-0.12358093249999999,21.150207666666667,-10.749308,-245.09938666666667,7.381334194875725,0.1551025172166026,246.24867149073785,44.43493749999762,26.047644601967832
18:26:15:79,2.377716,0.4004364,7.245117,-0.053634644,-0.03578186,-0.16885376,20.249939,-11.099243,-244.94934,7.6358105680268125,0.18074459551589347,246.0354291379849,44.434937499997616,26.047644741909288
18:26:15:80,2.1790009,0.24720764,7.458191,-0.053634644,-0.07626343,-0.16566467,21.000671,-10.800171,-244.94934,7.773915971500862,0.19009883923522664,246.08504839285766,44.43493749999761,26.04764488185074
18:26:15:81,2.1358948,0.3094635,7.5779114,-0.05683899,-0.09649658,-0.13264465,21.1502075,-9.8999025,-245.99991,7.879248405828391,0.1735997232415392,247.10764033995838,44.4349374999976,26.047645021792196
18:26:15:82,2.195755,0.48902893,7.678467,-0.071746826,-0.14125061,-0.09428406,21.299744,-8.999634,-247.05048,8.001208957682017,0.18436058645092768,248.13023228705907,44.434937499997595,26.047645161733648
18:26:15:83,2.2340546,0.6063385,7.9897156,-0.10369873,-0.1721344,-0.060195923,20.400238,-9.524536000000001,-246.74988,8.3183052180866,0.20977899659592908,247.7769964998337,44.43493749999759,26.047645301675104
18:26:15:84,2.3968658,0.6422577,8.399124,-0.13778687,-0.15934753,-0.03463745,19.500732,-10.049438,-246.44928,8.758010309641964,0.21348679070143964,247.42376071260833,44.43493749999758,26.047645441616556
18:26:15:85,2.3825073,0.6997223,8.607407,-0.15377808,-0.12953186,-0.027175903,19.275665,-10.2745055,-247.12448,8.958426624989434,0.20289093214683454,248.08817203345853,44.434937499997574,26.04764558155801
18:26:15:86,2.3394012,0.8792877,8.983307,-0.19424438,0.021743774,0.011169434,19.050598,-10.499573,-247.79968,9.324470467012146,0.1957764723485124,248.75258335430877,44.43493749999756,26.047645721499467
18:26:15:87,2.3202515,0.93434143,9.002457,-0.20491028,0.070739746,0.02609253,18.3753965,-10.2745055,-247.87520999999998,9.34348933578434,0.21834182978903474,248.76867244633723,44.43493749999755,26.04764586144092
18:26:15:88,2.3872833,1.1929169,9.229904,-0.21768188,0.15383911,0.05697632,17.700195,-10.049438,-247.95074,9.607981064405804,0.2725769133412969,248.78476153836567,44.434937499997545,26.047646001382375
18:26:15:89,2.4471436,1.2863007,9.519608,-0.19851685,0.15063477,0.058044434,18.75,-9.899902,-247.12524000000002,9.912921757156436,0.25586897034469763,248.0356820831234,44.43493749999754,26.047646141323828
18:26:15:90,2.3992615,1.3030548,9.720718,-0.17720032,0.12719727,0.060180664,19.799805,-9.750366,-246.29974,10.096869118331151,0.2262759625391884,247.28660262788114,44.43493749999753,26.047646281265283
18:26:15:91,2.4112244,1.1929169,10.1828,-0.06854248,0.019607544,0.08255005,18.450165,-9.750366,-247.04971,10.53216358007513,0.10907354446090416,247.93346484319173,44.434937499997524,26.047646421206736
18:26:15:92,2.5453033,1.1570129,10.180405,0.016677856,-0.03364563,0.10598755,17.100525,-9.750366,-247.79968,10.55736206179282,0.11244349716126822,248.58032705850232,44.43493749999752,26.04764656114819
18:26:15:93,2.626709,1.1977081,10.101395,0.047561646,-0.05708313,0.11663818,17.100525,-9.225463999999999,-247.79968,10.50582151997223,0.1382933799375032,248.56084504996812,44.43493749999751,26.047646701089644
18:26:15:94,2.8541565,1.2455902,9.986481,0.08164978,-0.14976501,0.13368225,17.100525,-8.700562,-247.79968,10.460760346943681,0.2167191471914999,248.54136304143395,44.4349374999975,26.0476468410311
18:26:15:95,2.923584,1.1594086,10.077454,0.06567383,-0.2381897,0.13154602,17.20021566666667,-8.700562,-248.24981666666667,10.556829582262184,0.2799138090748638,248.99704516965807,44.434937499997496,26.04764698097255
18:26:15:96,3.08280185,1.0839919999999998,10.4629215,0.025726319500000004,-0.3260727,0.130485535,17.299906333333332,-8.700562,-248.69995333333333,10.962063706396581,0.3569317921416492,249.45272729788215,44.43493749999749,26.047647120914007
18:26:15:97,3.2420197,1.0085754,10.848389,-0.014221191,-0.4139557,0.12942505,17.399597,-8.700562,-249.15009,11.367297830530976,0.43394977520843464,249.90840942610626,44.43493749999748,26.04764726085546
18:26:15:98,3.342575,0.9559021,11.279343,-0.03340149,-0.44804382,0.12515259,17.250061,-8.850098,-250.95062,11.802971446506954,0.46639264033442956,251.69843566756174,44.43493749999747,26.047647400796915
18:26:15:99,3.7208557,0.79548645,12.454895,-0.024871826,-0.50450134,0.098526,16.7251585,-9.224701,-249.975585,13.023132314976344,0.5146334447608024,250.7050034747079,44.43493749999746,26.047647540738367
18:26:16:00,3.9818268,0.67578125,12.984009,0.028396606,-0.46295166,0.058044434,16.200256,-9.599304,-249.00055,13.597651071973086,0.46743958224294097,249.71157128185402,44.43493749999745,26.047647680679823
18:26:16:01,4.096756,0.5297241,13.163574,0.10722351,-0.33085632,-0.0079956055,15.675353999999999,-9.674835,-249.44992000000002,13.796510348603839,0.3478889410256873,250.12974639838285,44.434937499997446,26.047647820621275
18:26:16:02,3.9004211,0.3884735,12.63446,0.1764679,-0.10395813,-0.08149719,15.150452,-9.750366,-249.89929,13.228521304708531,0.2204314054335339,250.5479215149117,44.43493749999744,26.04764796056273
18:26:16:03,3.4431305,0.3669281,11.839584,0.16261292,0.15489197,-0.13050842,14.5500185,-10.0502015,-249.824525,12.335539435454612,0.2597439735822637,250.45049291068256,44.43493749999743,26.047648100504183
18:26:16:04,2.9283752,0.49142456,11.324829,0.07525635,0.37008667,-0.15287781,13.949585,-10.350037,-249.74976,11.707631327018598,0.4074300999158107,250.3530643064534,44.434937499997424,26.04764824044564
18:26:16:05,2.6410675,0.48902893,11.197937,-0.016357422,0.48406982,-0.1560669,14.324951,-10.575104,-250.65003000000002,11.515562508618594,0.5088693674853385,251.28194088300694,44.43493749999742,26.04764838038709
18:26:16:06,2.4064484,0.35734558,11.257797,-0.07281494,0.5192261,-0.15287781,14.700317,-10.800171,-251.5503,11.517668299556863,0.5461404427423497,252.21081745956047,44.43493749999741,26.047648520328547
18:26:16:07,2.1981506,0.27833557,11.238647,-0.083465576,0.5064392,-0.13690186,14.475249999999999,-10.575104,-251.25045999999998,11.45497809427921,0.5312149140838492,251.8893551019418,44.4349374999974,26.04764866027
18:26:16:08,2.0042114,0.12271118,11.298492,-0.08453369,0.39778137,-0.10493469,14.250183,-10.350037,-250.95062,11.475532355566383,0.41998482380853847,251.5678927443231,44.434937499997396,26.047648800211455
18:26:16:09,1.8509827,-0.011367798,11.671997,-0.07493591,0.23266602,-0.05168152,13.950348,-10.800171,-252.075195,11.817858526422613,0.24983964253032165,252.6924068819017,44.43493749999739,26.047648940152907
18:26:16:10,1.8964844,-0.1933136,12.272934,-0.027008057,0.08352661,0.0069122314,13.650513,-11.250305,-253.19977,12.420101939829008,0.08805628122930524,253.81692101948028,44.43493749999738,26.047649080094363
18:26:16:11,1.848587,-0.40400696,12.802048,0.07846069,-0.014480591,0.0665741,13.2003785,-11.174774,-252.6001,12.941133200558651,0.10391283935007926,253.1918507847655,44.43493749999737,26.047649220035815
18:26:16:12,1.8054962,-0.5548401,12.8954315,0.21481323,-0.01234436,0.13580322,12.750244,-11.099243,-252.00043,13.0330279534717,0.254439819150248,252.56678055005074,44.43493749999736,26.04764935997727
18:26:16:13,1.9515381,-0.91397095,12.311249,0.34051514,0.08566284,0.20611572,13.4254455,-11.9247435,-252.825165,12.498427732846901,0.407151535373752,253.46403811294147,44.43493749999735,26.047649499918723
18:26:16:14,2.0951996,-0.88046265,11.34877,0.42359924,0.19750977,0.26789856,14.100647,-12.750244,-253.6499,11.574094191546273,0.5387170535857428,254.36129567583222,44.434937499997346,26.04764963986018
18:26:16:15,2.219696,-0.8062439,10.841202,0.4544983,0.24545288,0.3030548,13.650512500000001,-13.050079499999999,-253.72467,11.095437817567506,0.5988806498846196,254.42708782167728,44.43493749999734,26.04764977980163
18:26:16:16,2.4543304,-0.6937103,9.622559,0.42253113,0.21455383,0.2977295,13.200378,-13.349915,-253.79944,9.954828647504248,0.5596505668334445,254.4928799675223,44.43493749999733,26.047649919743087
18:26:16:17,2.523758,-0.7224426,8.964157,0.39057922,0.19111633,0.28814697,13.650512500000001,-13.050079499999999,-254.47464000000002,9.340631053280488,0.5216380498091164,255.17497259074423,44.434937499997325,26.04765005968454
18:26:16:18,2.5333405,-0.7559509,8.58107,0.25102234,0.09310913,0.2508545,14.100647,-12.750244,-255.14984,8.979088940257306,0.36689168079786505,255.8570652139662,44.43493749999732,26.047650199625995
18:26:16:19,2.4662933,-0.9690399,8.461365,0.19670105,0.06541443,0.23806763,12.825012000000001,-12.450409,-255.22461,8.866585511494371,0.3156684133345373,255.8531177988081,44.43493749999731,26.047650339567447
18:26:16:20,2.408844,-1.0815735,8.695999,0.09017944,0.0068206787,0.22741699,11.549377,-12.150574,-255.29938,9.08805420649763,0.24473933152908287,255.84917038365006,44.434937499997304,26.047650479508903
18:26:16:21,2.3250427,-1.1605835,9.196381,0.022003174,-0.067733765,0.22529602,12.149810500000001,-12.375641,-254.399875,9.55647430355236,0.23628436091918972,254.9912843642456,44.4349374999973,26.047650619450355
18:26:16:22,2.3082733,-1.3042297,9.802124,0.0124053955,-0.15402222,0.23701477,12.750244,-12.600708,-253.50037,10.154347623024876,0.28293592788720334,254.1333983448411,44.43493749999729,26.04765075939181
18:26:16:23,2.329834,-1.3353577,10.343216,0.059280396,-0.21368408,0.24659729,12.450409,-13.050079499999999,-254.85001,10.686132316098341,0.3316402792646082,255.48800998759774,44.43493749999728,26.047650899333263
18:26:16:24,2.3585663,-1.4526672,10.79332,0.15089417,-0.23179626,0.26257324,12.150574,-13.499451,-256.19965,11.143106999748836,0.38137024405959374,256.84262163035436,44.43493749999727,26.04765103927472
18:26:16:25,2.3681335,-1.4957733,10.8124695,0.27766418,-0.17959595,0.28814697,11.700439500000002,-13.050079499999999,-256.124875,11.16937288871875,0.4386123327400357,256.72466318243244,44.43493749999726,26.04765117921617
18:26:16:26,2.3465881,-1.4287262,10.28096,0.43745422,-0.021942139,0.32435608,11.250305,-12.600708,-256.0501,10.641704411757923,0.545027080696611,256.6067047345106,44.434937499997254,26.047651319157627
18:26:16:27,2.3609467,-1.2443695,9.454956,0.46728516,0.04624939,0.33288574,12.0002745,-13.3506775,-255.82504,9.824394013612602,0.5755930356831511,256.45633393994297,44.43493749999725,26.04765145909908
18:26:16:28,2.4064484,-1.0552368,8.602631,0.46194458,0.06329346,0.3296814,12.750244,-14.100647,-255.59998,8.99498631061203,0.5710417520427976,256.3059631453754,44.43493749999724,26.047651599040535
18:26:16:29,2.3825073,-1.0289001,8.356018,0.44917297,0.05795288,0.3222351,12.0750425,-14.175415000000001,-255.52521,8.749743611481271,0.5558330261426765,256.2037052982414,44.43493749999723,26.047651738981987
18:26:16:30,2.3968658,-0.99298096,8.334473,0.44917297,0.045181274,0.31477356,11.399841,-14.250183,-255.45044,8.72894134691379,0.5503454356801349,256.10144745110745,44.434937499997226,26.047651878923443
18:26:16:31,2.329834,-0.92115784,8.205185,0.4640808,0.0057678223,0.29559326,11.6249085,-14.624786499999999,-256.20041,8.579144428086897,0.550254152242536,256.88094282584586,44.43493749999722,26.04765205884817
18:26:16:32,2.3034973,-0.8206024,8.099838,0.4832611,-0.050689697,0.27322388,11.849976,-14.99939,-256.95038,8.460902063978583,0.5574603346942419,257.6604382005842,44.434937499997204,26.047652238772894
18:26:16:33,2.3848877,-0.7008972,7.664093,0.49497986,-0.08265686,0.24234009,11.3250735,-15.674591,-257.775115,8.057125277617827,0.5572844314458167,258.5008034786458,44.4349374999972,26.047652418697623
18:26:16:34,2.4519348,-0.46865845,7.130188,0.47047424,-0.09863281,0.19972229,10.800171,-16.349792,-258.59985,7.554548690792287,0.5205414823382645,259.3411687567074,44.43493749999718,26.04765259862235
18:26:16:35,2.456726,-0.32260132,6.766266,0.38632202,-0.13378906,0.15498352,10.575104,-15.5250545,-258.149725,7.205687325543465,0.4372231777755548,258.8335690391708,44.434937499997176,26.047652778547075
18:26:16:36,2.3848877,-0.2675476,7.039215,0.27659607,-0.17106628,0.10491943,10.350037,-14.700317,-257.6996,7.437057138149609,0.3417267108143702,258.32596932163415,44.43493749999717,26.0476529584718
18:26:16:37,2.3848877,-0.32260132,7.5635376,0.17752075,-0.18917847,0.050582886,11.550140500000001,-15.5250545,-258.149725,7.937182244341552,0.264311820674355,258.877832346544,44.434937499997154,26.04765313839653
18:26:16:38,2.5620728,-0.36331177,7.9657745,0.16047668,-0.18598938,0.027145386,12.750244,-16.349792,-258.59985,8.37554630215669,0.24714709441483587,259.42969537145376,44.43493749999715,26.047653318321256
18:26:16:39,2.6003723,-0.20289612,8.102234,0.13491821,-0.15934753,-0.033569336,11.250305,-16.500091,-258.44955500000003,8.511715380866205,0.21147448788491224,259.22431919344484,44.43493749999713,26.04765349824598
18:26:16:40,2.65065,-0.025726318,7.9514008,0.08911133,-0.118881226,-0.09535217,9.750366,-16.65039,-258.29926,8.381609746831362,0.17653784680158777,259.0189430154359,44.434937499997126,26.047653678170708
18:26:16:41,2.5668488,0.0748291,7.915497,0.009216309,-0.058151245,-0.15820312,10.0502015,-17.475128,-257.99942999999996,8.321622733173935,0.168803835336665,258.7873623105147,44.43493749999712,26.047653858095437
18:26:16:42,2.523758,0.14665222,8.114212,-0.11968994,0.07180786,-0.24555969,10.350037,-18.299866,-257.6996,8.498899793334365,0.2824563892849289,258.55578160559344,44.434937499997105,26.047654038020163
18:26:16:43,2.4423523,0.29270935,8.564316,-0.14311218,0.103759766,-0.2732544,9.8251345,-18.0747985,-258.67463,8.910570804878255,0.32544608190003943,259.4921883570033,44.4349374999971,26.04765421794489
18:26:16:44,2.1454773,0.3501587,8.863586,-0.15377808,0.15596008,-0.32225037,9.300232,-17.849731,-259.64966,9.126272006651838,0.38963642720776215,260.4285951084131,44.43493749999708,26.047654397869614
18:26:16:45,1.8725433,0.3501587,9.112595,-0.13352966,0.152771,-0.34461975,9.300232,-17.849731,-259.64966,9.309587378589107,0.39991489173420147,260.4285951084131,44.434937499997076,26.04765457779434
18:26:16:46,1.685791,0.41481018,9.421448,-0.06642151,0.07394409,-0.3254547,9.300232,-17.849731,-259.64966,9.58006478046034,0.34029444190097813,260.4285951084131,44.43493749999707,26.04765475771907
18:26:16:47,1.745636,0.53930664,9.481293,-0.044052124,0.029205322,-0.31373596,9.600067,-18.0747985,-260.17456,9.655724397904752,0.31815686863425824,260.9784952532701,44.434937499997055,26.047654937643795
18:26:16:48,2.0640717,0.78829956,9.684799,-0.004638672,-0.15829468,-0.29348755,9.899902,-18.299866,-260.69946,9.933636788681076,0.3334871286859936,261.5283953981272,44.43493749999705,26.04765511756852
18:26:16:49,2.2292786,0.7906952,9.732681,0.011352539,-0.21154785,-0.29348755,9.825134,-17.475128,-259.649655,10.015985294691781,0.3619617590110473,260.4235470961554,44.434937499997034,26.047655297493247
18:26:16:50,2.4662933,0.69732666,9.80452,0.015609741,-0.26268005,-0.29988098,9.750366,-16.65039,-258.59985,10.13397649211659,0.39896500454031053,259.31869879418366,44.43493749999703,26.047655477417976
18:26:16:51,2.5668488,0.68774414,9.86676,-0.019546509,-0.22007751,-0.31266785,9.450531,-17.475128,-259.649655,10.218349067328136,0.3828542292381132,260.40990272019826,44.43493749999702,26.047655657342702
18:26:16:52,2.6315002,0.69732666,9.921829,-0.048309326,-0.18917847,-0.31906128,9.150696,-18.299866,-260.69946,10.288525087620082,0.37406200673866036,261.5011066462128,44.434937499997005,26.047655837267428
18:26:16:53,2.6626282,0.5728302,10.187592,-0.11755371,-0.06668091,-0.3435669,8.85009775,-18.599701000000003,-260.77499,10.545366476701096,0.369192948563217,261.58755132728925,44.434937499997,26.047656017192153
18:26:16:54,2.6602325,0.53930664,10.28096,-0.13352966,-0.032592773,-0.34994507,8.5494995,-18.899536,-260.85052,10.633241609575338,0.37597075813000413,261.67399600836575,44.434937499996984,26.04765619711688
18:26:16:55,2.6865692,0.60154724,10.412643,-0.14950562,-0.032592773,-0.36166382,7.79953,-20.024872000000002,-260.25009,10.77045251573903,0.39270209823784535,261.13950521317906,44.43493749999698,26.04765637704161
18:26:16:56,2.7392426,0.51776123,10.45813,-0.14099121,-0.07307434,-0.36698914,7.0495605,-21.150208,-259.64966,10.823308635063766,0.39987424190817705,260.6050144179924,44.43493749999697,26.047656556966334
18:26:16:57,2.863739,0.41001892,10.472504,-0.116485596,-0.13058472,-0.37231445,7.1998596,-19.725037,-260.32486,10.86473453908999,0.4113870596552061,261.1745260370642,44.434937499996956,26.04765673689106
18:26:16:58,3.0768127,0.34776306,10.431793,-0.095184326,-0.1913147,-0.38510132,7.3501587,-18.299866,-261.00006,10.881636859022215,0.4404138928529693,261.744037656136,44.43493749999695,26.047656916815786
18:26:16:59,3.2444153,0.29988098,10.149277,-0.09197998,-0.22433472,-0.41493225,7.1998596,-20.09964,-261.07483,10.65945509225349,0.480577938953029,261.9525229247362,44.434937499996934,26.047657096740515
18:26:16:60,3.2563782,0.24481201,9.842819,-0.13246155,-0.2232666,-0.44688416,7.0495605,-21.899414,-261.1496,10.370391398999196,0.5168166883556181,262.1610081933364,44.43493749999693,26.04765727666524
18:26:16:61,3.3306122,0.26875305,9.826065,-0.21235657,-0.23286438,-0.48417664,6.37512205,-20.8496095,-261.07483,10.378668470131327,0.5777094001456432,261.9865404276458,44.43493749999692,26.047657456589967
18:26:16:62,3.373703,0.29270935,10.0846405,-0.30290222,-0.23286438,-0.51293945,5.7006836,-19.799805,-261.00006,10.638022593979894,0.6395955391651941,261.81207266195526,44.434937499996906,26.047657636514693
18:26:16:63,3.4455261,0.3094635,10.546722,-0.37428284,-0.22219849,-0.5470276,6.3003540000000005,-21.1502075,-260.84976,11.099583898007054,0.6990701026638928,261.785844009038,44.4349374999969,26.047657816439422
18:26:16:64,3.536499,0.3501587,10.886688,-0.4190216,-0.17533875,-0.58218384,6.9000244,-22.50061,-260.69946,11.452048371428173,0.7384177693387857,261.7596153561208,44.434937499996884,26.047657996364148
18:26:16:65,3.5700226,0.3310089,11.0494995,-0.45843506,-0.095443726,-0.6301117,6.6001892,-22.425079,-261.299895,11.616628919651784,0.7850560257375627,262.3436616555307,44.43493749999688,26.047658176288873
18:26:16:66,3.4239807,0.24241638,11.34877,-0.4925232,0.004699707,-0.67485046,6.300354,-22.349548,-261.90033,11.856516775519056,0.8354785054963039,262.92770795494056,44.43493749999687,26.0476583562136
18:26:16:67,3.3282166,0.13708496,11.504395,-0.4935913,0.1250763,-0.7014923,5.850219666666667,-22.499593,-261.60024,11.976932927039325,0.866814800990771,262.63205798687375,44.434937499996856,26.047658536138325
18:26:16:68,3.0433044,-0.11669922,11.746216,-0.44885254,0.24012756,-0.6993561,5.400085333333333,-22.649638,-261.30015000000003,12.134616215507766,0.8650021978834593,262.3364080188069,44.43493749999685,26.047658716063054
18:26:16:69,2.7823334,-0.33457947,11.777344,-0.35617065,0.33067322,-0.6727295,4.949951,-22.799683,-261.00006,12.106161830441431,0.8299200506776788,262.04075805074007,44.434937499996835,26.04765889598778
18:26:16:70,2.6291046,-0.5332947,11.382294,-0.25071716,0.38180542,-0.63331604,4.875183,-22.7249145,-261.67526,11.694152852482528,0.7808480515318736,262.7054550212903,44.43493749999683,26.047659075912506
18:26:16:71,2.5668488,-0.6147003,10.338425,-0.16015625,0.3711548,-0.5928345,4.800415,-22.650146,-262.35046,10.670032835071622,0.7175365177935912,263.37015199184043,44.43493749999682,26.04765925583723
18:26:16:72,2.5668488,-0.59555054,9.924225,-0.12181091,0.2869873,-0.555542,5.250549299999999,-23.325347999999998,-262.049865,10.268088189063276,0.6370451490438633,263.13963519732516,44.434937499996806,26.04765943576196
18:26:16:73,2.8374023,-0.664978,9.028793,-0.15057373,0.12719727,-0.5321045,5.7006836,-24.00055,-261.74927,9.487473351181457,0.5674388007369744,262.9091184028099,44.4349374999968,26.047659615686687
18:26:16:74,2.9140167,-0.7344055,8.921051,-0.21342468,-0.007019043,-0.520401,5.8502198,-24.0753175,-261.6745,9.413606944785307,0.562509165968643,262.84485794301645,44.434937499996785,26.047659795611413
18:26:16:75,2.9834442,-0.9450989,8.942596,-0.30397034,-0.07839966,-0.4969635,5.999756,-24.150085,-261.59973,9.474395729781971,0.5878071066430562,262.780597483223,44.43493749999678,26.04765997553614
18:26:16:76,3.2827148,-1.0456543,9.301727,-0.38812256,-0.091171265,-0.48524475,5.999756,-24.150085,-261.37466500000005,9.919260786761104,0.6280237165467689,262.5565455981549,44.43493749999677,26.047660155460868
18:26:16:77,3.246811,-1.1557922,10.328842,-0.4456482,-0.03578186,-0.48524475,5.999756,-24.150085,-261.1496,10.888646120627937,0.6598068861953944,262.3324937130869,44.43493749999676,26.047660335385594
18:26:16:78,3.0121765,-1.3569031,11.008804,-0.44885254,0.068618774,-0.46606445,5.400085499999999,-24.3003845,-261.1496,11.493831336867522,0.6506867221355582,262.334072096196,44.43493749999675,26.04766051531032
18:26:16:79,2.6721954,-1.4287262,11.387085,-0.38812256,0.199646,-0.40853882,4.800415,-24.450684,-261.1496,11.78336079425444,0.5978307572749548,262.33565047930506,44.434937499996735,26.047660695235045
18:26:16:80,2.5548859,-1.4215393,11.422989,-0.2848053,0.30297852,-0.3243866,4.35028075,-25.7255555,-261.449435,11.791221040994198,0.5273866785851159,262.7513676627427,44.43493749999673,26.04766087515977
18:26:16:81,2.4734802,-1.2443695,11.173996,-0.15696716,0.34025574,-0.2263794,3.9001465,-27.000427,-261.74927,11.511939296241025,0.43779023591872535,263.1670848461804,44.43493749999672,26.0476610550845
18:26:16:82,2.4734802,-1.1246643,10.637695,-0.030197144,0.314682,-0.13476562,5.02471925,-26.3999935,-261.89957000000004,10.979231712670588,0.3436544790392541,263.27785271714936,44.43493749999671,26.047661235009226
18:26:16:83,2.65065,-0.77511597,9.864365,0.06781006,0.24012756,-0.060195923,6.149292,-25.79956,-262.04987,10.243653988820299,0.25667683661479684,263.38862058811833,44.4349374999967,26.047661414933952
18:26:16:84,2.8613434,-0.50216675,9.1245575,0.13066101,0.13572693,-0.0079956055,5.3245545,-26.625061000000002,-262.20016499999997,9.57585542227614,0.18856836629921953,263.6048344850434,44.434937499996686,26.047661594858678
18:26:16:85,3.2228699,-0.15022278,8.408691,0.15089417,0.06222534,0.0026550293,4.499817,-27.450562,-262.35046,9.006416690862016,0.1632424352265316,263.8210483819684,44.43493749999668,26.047661774783407
18:26:16:86,3.3521576,0.34298706,7.865204,0.13066101,0.03878784,-0.028244019,4.724884,-27.0004275,-262.95013,8.556636877896667,0.13919238727515978,264.37553575378166,44.43493749999667,26.047661954708133
18:26:16:87,3.2731476,0.6135254,7.5874786,0.07846069,0.040908813,-0.07084656,4.949951,-26.550293,-263.5498,8.286117313512335,0.11335274994537481,264.9300231255949,44.43493749999666,26.04766213463286
18:26:16:88,2.9810486,0.7428131,7.549179,0.05076599,0.040908813,-0.09321594,4.949951,-27.1499635,-264.150235,8.150369662238306,0.11375380517517938,265.58850823739397,44.43493749999665,26.047662314557584
18:26:16:89,2.4710846,0.61831665,7.9657745,0.010284424,0.13465881,-0.11239624,4.949951,-27.749634,-264.75067,8.363141632477273,0.1757033842979852,266.2469933491931,44.434937499996636,26.04766249448231
18:26:16:90,2.298706,0.59677124,8.080688,0.04437256,0.2081604,-0.09428406,5.77468865,-27.749634,-264.52560500000004,8.422452359062124,0.232785652863739,266.0411121916102,44.43493749999663,26.04766267440704
18:26:16:91,1.8916931,0.78590393,7.932251,0.11148071,0.24650574,-0.054870605,6.5994263,-27.749634,-264.30054,8.192481534845108,0.27605037918488307,265.83523103402734,44.43493749999662,26.047662854331765
18:26:16:92,1.7863464,0.9056244,7.3025665,0.14875793,0.24224854,-0.006942749,6.5994263,-27.899933,-263.175205,7.572229955672937,0.28436152804782416,264.73235512317444,44.43493749999661,26.04766303425649
18:26:16:93,1.9491577,1.0540619,6.6728973,0.1338501,0.20922852,0.04206848,6.5994263,-28.050232,-262.04987,7.03120335396781,0.2519170098681524,263.6294792123215,44.4349374999966,26.047663214181217
18:26:16:94,2.0640717,1.1618042,6.5436096,0.061416626,0.13572693,0.060180664,6.74972535,-27.674866,-263.40027,6.959095313263836,0.1606720691219531,264.9366670847128,44.434937499996586,26.047663394105946
18:26:16:95,2.2723694,1.4562836,6.34729,-0.03340149,0.035583496,0.054855347,6.9000244,-27.2995,-264.75067,6.897283157721257,0.07342311499992712,266.24385495710413,44.43493749999658,26.047663574030672
18:26:16:96,2.329834,1.4826202,6.387985,-0.08558655,-0.020874023,0.0473938,6.74972535,-28.049469,-264.375305,6.959356398779203,0.10003476723393237,265.9459919177648,44.43493749999657,26.047663753955398
18:26:16:97,2.389679,1.5233154,6.766266,-0.24432373,-0.20515442,-0.0079956055,6.5994263,-28.799438,-263.99994,7.3357624766396405,0.31913375063437105,265.6481288784255,44.43493749999656,26.047663933880123
18:26:16:98,2.1526642,1.2982635,7.8508453,-0.3156891,-0.24884033,-0.027175903,6.2995911499999995,-29.1000365,-264.59961,8.2434958117249,0.4028891254392259,266.269795471514,44.43493749999655,26.047664113804853
18:26:16:99,2.0568848,1.1833496,8.372787,-0.35723877,-0.20942688,-0.021850586,5.999756,-29.400635,-265.19928,8.702565914927632,0.4146765064073327,266.8914620646025,44.434937499996536,26.04766429372958
18:26:17:00,1.9850616,1.1833496,8.71994,-0.3870697,-0.13272095,0.007980347,5.7746888,-28.8002015,-264.29977499999995,9.020983285386063,0.40926945789446945,265.927548134904,44.43493749999653,26.047664473654304
18:26:17:01,1.9299927,1.180954,8.909088,-0.39665222,-0.10183716,0.02609253,5.5496216,-28.199768,-263.40027,9.191918905425206,0.41034693968591374,264.96363420520544,44.43493749999653,26.04766450364176
18:26:17:02,1.9132385,1.0732117,9.471725,-0.39665222,-0.021942139,0.107040405,5.1750183,-29.1748045,-263.92517,9.722439991407718,0.41142689435352636,265.5850631369335,44.43493749999653,26.047664533629213
18:26:17:03,2.0042114,1.0277252,9.976898,-0.37747192,-0.00062561035,0.13368225,4.800415,-30.149841,-264.45007,10.227980060843343,0.4004452343852514,266.20649206866165,44.43493749999652,26.047664563616667
18:26:17:04,2.3322296,1.3006592,10.292938,-0.26669312,0.013214111,0.20185852,4.800415,-29.5501705,-264.29977499999995,10.633700293571602,0.33473376746519784,265.99053212548836,44.43493749999652,26.04766459360412
18:26:17:05,2.3729248,1.417984,10.271378,-0.17720032,-0.014480591,0.22315979,4.800415,-28.9505,-264.14948,10.636853705377124,0.2853242590398787,265.7745721823151,44.43493749999652,26.047664623591576
18:26:17:06,2.2579956,1.5041656,10.127731,-0.104766846,-0.07093811,0.24234009,5.5503845,-28.9505,-264.52484,10.48484589730358,0.2733807357740628,266.16326092422275,44.43493749999652,26.04766465357903
18:26:17:07,2.2843323,1.5041656,10.245041,-0.06109619,-0.11781311,0.26257324,6.300354,-28.9505,-264.9002,10.603846156028842,0.294206355615384,266.5519496661304,44.434937499996515,26.047664683566484
18:26:17:08,2.2915192,1.4347382,10.482071,-0.024871826,-0.1210022,0.29133606,6.150055,-27.825165,-264.67513499999995,10.825125698833657,0.3164440550709365,266.20708247636037,44.434937499996515,26.04766471355394
18:26:17:09,2.3968658,1.4514923,10.611359,0.030517578,-0.10928345,0.31370544,5.999756,-26.69983,-264.45007,10.975096144774765,0.3335945114903454,265.86221528659036,44.434937499996515,26.047664743541393
18:26:17:10,2.4758759,1.3413696,10.877121,0.10295105,-0.07733154,0.32862854,5.024719299999999,-27.825165,-263.92517,11.235701808282649,0.3529529757310536,265.43981831497484,44.434937499996515,26.047664773528847
18:26:17:11,2.6362915,1.2791138,10.762192,0.17007446,-0.04750061,0.3584442,4.0496826,-28.9505,-263.40027,11.153965287340045,0.3995796221134202,265.01742134335933,44.43493749999651,26.0476648035163
18:26:17:12,2.8780975,1.338974,10.680786,0.22013855,-0.03791809,0.37016296,5.0994873,-29.399871500000003,-264.07547,11.1425080735882,0.4323417394854587,265.7582025705451,44.43493749999651,26.047664833503756
18:26:17:13,3.0480957,1.4060059,10.728683,0.2584839,-0.09437561,0.36271667,6.149292,-29.849243,-264.75067,11.241546997708202,0.4552845978264266,266.4989837977309,44.43493749999651,26.04766486349121
18:26:17:14,3.1223145,1.4443054,10.790924,0.30003357,-0.19024658,0.33714294,5.3245545,-29.774475000000002,-265.350335,11.32602784294456,0.48977470975999254,267.0700092429179,44.43493749999651,26.047664893478668
18:26:17:15,3.239624,1.34375,10.944153,0.32772827,-0.27120972,0.30838013,4.499817,-29.699707,-265.95,11.492402386415339,0.5254130144548079,267.6410346881048,44.43493749999651,26.047664923466122
18:26:17:16,3.507782,1.0396881,11.18837,0.34051514,-0.29144287,0.2796173,4.724884,-29.999541999999998,-266.024775,11.771368194127037,0.5282758195321328,267.7528927912282,44.4349374999965,26.047664953453577
18:26:17:17,3.63945,0.9271698,11.384689,0.34796143,-0.2690735,0.23487854,4.949951,-30.299377,-266.09955,11.98817683249847,0.4986437944288754,267.86475089435163,44.4349374999965,26.04766498344103
18:26:17:18,3.694519,0.7906952,11.573822,0.35862732,-0.2147522,0.1773529,4.799652,-30.825042500000002,-265.57464500000003,12.174893232728902,0.4540772106080995,267.40133068535795,44.4349374999965,26.047665013428485
18:26:17:19,3.6035461,0.63986206,11.72467,0.37246704,-0.12846375,0.11982727,4.649353,-31.350708,-265.04974,12.28262409094867,0.41181695640912724,266.93791047636427,44.4349374999965,26.04766504341594
18:26:17:20,3.6203003,0.36453247,11.779724,0.39697266,-0.011276245,0.06762695,4.574585,-31.275177,-265.12451,12.328882986712154,0.4028496628459283,267.00202640042005,44.434937499996494,26.047665073403394
18:26:17:21,3.536499,0.18257141,11.437363,0.44171143,0.16342163,0.014373779,4.499817,-31.199646,-265.19928,11.973029269592528,0.47119234084102285,267.06614232447583,44.434937499996494,26.047665103390848
18:26:17:22,3.1701965,0.07962036,10.702347,0.44917297,0.33493042,-0.019714355,5.0247193,-31.424713,-265.19928,11.162289933465614,0.5606455199259719,267.10249598175824,44.434937499996494,26.047665133378302
18:26:17:23,2.8613434,0.11314392,10.063095,0.39909363,0.43719482,-0.03036499,5.5496216,-31.64978,-265.19928,10.462598557642433,0.5927369304835909,267.13884963904064,44.434937499996494,26.047665163365757
18:26:17:24,2.6003723,0.09637451,9.744659,0.31175232,0.45742798,-0.03250122,5.0994873,-32.474517500000005,-265.649415,10.086109416968768,0.5545143778241924,267.67705638562114,44.43493749999649,26.04766519335321
18:26:17:25,2.4351807,-0.018539429,9.660858,0.23292542,0.4126892,-0.02078247,4.649353,-33.299255,-266.09955,9.963063085630047,0.4743401080850293,268.21526313220164,44.43493749999649,26.047665223340665
18:26:17:26,2.281952,-0.20289612,9.636917,0.15621948,0.35090637,0.0005187988,4.27474975,-33.824920500000005,-265.72494500000005,9.905485401064608,0.38410945782451417,267.9040971765388,44.43493749999649,26.04766525332812
18:26:17:27,2.2292786,-0.45188904,9.902679,0.08378601,0.2507782,0.038864136,3.9001465,-34.350586,-265.35034,10.160557964892039,0.26724562135606,267.592931220876,44.43493749999649,26.047665283315574
18:26:17:28,2.231659,-0.5931549,10.307297,0.031585693,0.10482788,0.0793457,4.575347900000001,-34.650421,-265.65017,10.562788745112911,0.1352119836999467,267.9405030873394,44.43493749999649,26.04766531330303
18:26:17:29,2.1909637,-0.7631378,10.877121,0.009216309,-0.05921936,0.13368225,5.2505493,-34.950256,-265.95,11.121801224853263,0.14650193485225915,268.2880749538027,44.43493749999648,26.047665343290483
18:26:17:30,2.2771606,-0.9450989,11.44693,0.010284424,-0.21687317,0.19120789,4.94995115,-34.650421,-266.024775,11.709435458376017,0.28930986578599904,268.3179449180135,44.43493749999648,26.047665373277937
18:26:17:31,2.437561,-1.1031189,11.794098,0.03265381,-0.29571533,0.24020386,4.649353,-34.350586,-266.09955,12.093772057131812,0.3823764141045111,268.3478148822243,44.43493749999648,26.04766540326539
18:26:17:32,2.461502,-1.2994385,11.928177,0.05821228,-0.28399658,0.2753601,4.649353,-35.700226,-266.09955,12.248630088896277,0.3998323544518438,268.5272471503831,44.43493749999648,26.047665433252845
18:26:17:33,2.408844,-1.4837952,11.995209,0.07952881,-0.18598938,0.30838013,4.649353,-37.049866,-266.09955,12.32433432545385,0.3688023666838614,268.70667941854197,44.43493749999647,26.0476654632403
18:26:17:34,2.401657,-1.5675964,11.827621,0.10295105,-0.052825928,0.33821106,5.0994873,-36.7500305,-265.649415,12.170371125753848,0.35745799539454604,268.22834963266894,44.43493749999647,26.047665493227754
18:26:17:35,2.3609467,-1.5556183,11.4014435,0.12213135,0.070739746,0.37443542,5.5496216,-36.450195,-265.19928,11.746783878969937,0.40015254849562487,267.7500198467959,44.43493749999647,26.04766552321521
18:26:17:36,2.4184113,-1.5795593,11.011185,0.1295929,0.14105225,0.3968048,5.6251526,-36.5249625,-266.02477999999996,11.383756669149651,0.44061786875195214,268.57941776298816,44.43493749999647,26.047665553202663
18:26:17:37,2.4950256,-1.5867462,10.795715,0.14663696,0.15063477,0.41278076,5.7006836,-36.59973,-266.85028,11.193318480642583,0.463229087814196,269.4088156791804,44.434937499996465,26.047665583190117
18:26:17:38,2.523758,-1.5604095,10.448547,0.1807251,0.10696411,0.41384888,6.1500549499999995,-36.074828499999995,-266.474915,10.86169262414764,0.4640838050130132,268.97681774515956,44.434937499996465,26.04766561317757
18:26:17:39,2.4303894,-1.5675964,10.048721,0.20948792,0.031326294,0.41596985,6.5994263,-35.549927,-266.09955,10.456622057087381,0.46679486011600785,268.5448198111387,44.434937499996465,26.047665643165026
18:26:17:40,2.3561707,-1.5436554,9.833252,0.2169342,-0.08052063,0.42129517,5.549621650000001,-36.000061,-266.024775,10.228746612219487,0.4806595877027377,268.5093902505655,44.434937499996465,26.047665673152483
18:26:17:41,2.3920746,-1.5005493,9.878738,0.22120667,-0.1913147,0.43301392,4.499817,-36.450195,-265.95,10.27439212636639,0.5225272817780382,268.4739606899923,44.434937499996465,26.047665703139938
18:26:17:42,2.4974213,-1.4790039,9.924225,0.23504639,-0.26800537,0.43089294,5.2497865,-37.2001645,-265.79970000000003,10.33996167964533,0.5592337700306667,268.4437363811934,44.43493749999646,26.047665733127392
18:26:17:43,2.6721954,-1.3664856,10.048721,0.2638092,-0.26268005,0.41490173,5.999756,-37.950134,-265.6494,10.487359290432913,0.5574401745744878,268.41351207239455,44.43493749999646,26.047665763114846
18:26:17:44,2.7512054,-1.2922668,9.984085,0.29257202,-0.2147522,0.38508606,5.7746888,-37.725066999999996,-264.89944,10.436524226129904,0.5291579800948333,267.63463551062864,44.43493749999646,26.0476657931023
18:26:17:45,2.6386871,-1.1294556,9.601013,0.3021698,-0.116744995,0.34779358,5.5496216,-37.5,-264.14948,10.020867736391233,0.47528555225128233,266.8557589488628,44.43493749999646,26.047665823089755
18:26:17:46,2.4950256,-1.1438141,9.21315,0.29577637,0.035583496,0.32435608,5.4748535,-37.425232,-264.74991,9.613303093240855,0.44040516898751914,267.4381598836767,44.43493749999645,26.04766585307721
18:26:17:47,2.33461,-1.0624237,8.959366,0.2872467,0.18153381,0.307312,5.4000854,-37.350464,-265.35034,9.319301856489984,0.4581548386495619,268.0205608184906,44.43493749999645,26.047665883064663
18:26:17:48,2.109558,-0.961853,8.511642,0.29470825,0.29444885,0.2977295,5.325317350000001,-38.024902,-265.49987,8.821759783917095,0.5120507133620995,268.26266484314215,44.43493749999645,26.047665913052118
18:26:17:49,1.9491577,-0.8277893,8.054352,0.3021698,0.3296051,0.29986572,5.2505493,-38.69934,-265.6494,8.328087235648278,0.5383916418455699,268.50476886779376,44.43493749999645,26.047665943039572
18:26:17:50,1.9874573,-0.6769562,7.5946655,0.30429077,0.29444885,0.3019867,5.62515265,-38.09967,-265.049735,7.879543151283072,0.520085536186506,267.8339013019356,44.434937499996444,26.047665973027026
18:26:17:51,2.0640717,-0.5740051,7.111038,0.29577637,0.22094727,0.28814697,5.999756,-37.5,-264.45007,7.426758059544615,0.4683268447259998,267.1630337360774,44.434937499996444,26.04766600301448
18:26:17:52,2.1981506,-0.48780823,6.771057,0.2552948,0.1293335,0.26364136,6.8252565,-38.400268499999996,-264.225005,7.135617410342647,0.38911355133423403,267.0909122407661,44.434937499996444,26.047666033001935
18:26:17:53,2.3561707,-0.3872528,6.826126,0.18711853,-0.0016937256,0.2199707,7.650757,-39.300537,-263.99994,7.231701132273258,0.2887963327922621,267.01879074545485,44.434937499996444,26.04766606298939
18:26:17:54,2.3489838,-0.46147156,7.0966797,0.12319946,-0.0975647,0.15924072,6.8252565,-38.9999385,-264.225005,7.48956231416385,0.2237288191907784,267.17640281239073,44.434937499996444,26.047666092976844
18:26:17:55,2.2460327,-0.6553955,7.3097534,0.07632446,-0.1252594,0.11557007,5.999756,-38.69934,-264.45007,7.675070092168612,0.18673987673353673,267.3340148793266,44.43493749999644,26.047666122964298
18:26:17:56,2.128708,-0.6721649,7.300186,-0.036590576,-0.08584595,0.06869507,6.52465825,-39.599609,-264.82467499999996,7.6338665849392475,0.11587670182447884,267.85027254170245,44.43493749999644,26.047666152951752
18:26:17:57,2.0951996,-0.62428284,7.5827026,-0.12713623,-0.036849976,0.04525757,7.0495605,-40.499878,-265.19928,7.891575834280843,0.13989206322060724,268.36653020407823,44.43493749999644,26.047666182939206
18:26:17:58,2.1358948,-0.562027,7.972946,-0.1633606,-0.018737793,0.03567505,7.64999375,-39.225006,-265.42434000000003,8.273197015925104,0.16825724267137313,268.41989007512564,44.43493749999644,26.04766621292666
18:26:17:59,2.1574402,-0.43273926,8.418274,-0.2102356,-0.010223389,0.012237549,8.250427,-37.950134,-265.6494,8.701100425968969,0.21083947162600442,268.47324994617304,44.43493749999643,26.047666242914115
18:26:17:60,2.1790009,-0.3992157,8.983307,-0.21662903,-0.04963684,-0.015457153,8.02536,-38.7001035,-266.024775,9.25241713032742,0.2227798826258599,268.945749339825,44.43493749999643,26.04766627290157
18:26:17:61,2.1550446,-0.3585205,9.2323,-0.18147278,-0.069869995,-0.036758423,7.800293,-39.450073,-266.40015,9.487260798929764,0.19790241975194584,269.41824873347696,44.43493749999643,26.047666302889024
18:26:17:62,2.1766052,-0.31782532,9.2035675,-0.13459778,-0.08477783,-0.049545288,8.02536,-38.8504025,-265.42511,9.462783832348512,0.16660905858758174,268.3738425679368,44.43493749999643,26.047666332876478
18:26:17:63,2.2149048,-0.2172699,8.91626,-0.10050964,-0.10076904,-0.06765747,8.250427,-38.250732,-264.45007,9.189815116209305,0.15758845262979168,267.32943640239665,44.43493749999642,26.047666362863932
18:26:17:64,2.3417969,-0.15261841,8.734299,-0.10902405,-0.11035156,-0.092163086,7.64999375,-39.225006,-264.29977499999995,9.044074530946853,0.18043764766223122,267.30661488785864,44.43493749999642,26.047666392851387
18:26:17:65,2.33461,-0.0736084,8.887543,-0.14738464,-0.13058472,-0.13050842,7.0495605,-40.19928,-264.14948,9.189354853606403,0.2362351559279533,267.28379337332063,44.43493749999642,26.04766642283884
18:26:17:66,2.2891235,-0.06881714,9.184418,-0.17826843,-0.12846375,-0.16139221,7.1998596,-39.5248415,-264.45007499999997,9.465640823300557,0.27263531254665363,267.48536487957074,44.43493749999642,26.0476664528263
18:26:17:67,2.171814,-0.131073,9.440598,-0.20277405,-0.10395813,-0.17417908,7.3501587,-38.850403,-264.75067,9.688077558500911,0.2868152019265119,267.68693638582084,44.43493749999642,26.047666482813753
18:26:17:68,2.061676,-0.05445862,9.680023,-0.21662903,-0.07519531,-0.17738342,7.1250915500000005,-40.200043,-265.05050500000004,9.897288464564287,0.2899092081594398,268.17960390500826,44.434937499996416,26.047666512801207
18:26:17:69,2.092804,-0.011367798,9.931412,-0.20809937,-0.06135559,-0.16459656,6.9000244,-41.549683,-265.35034,10.149527187164502,0.272326795931797,268.6722714241957,44.434937499996416,26.04766654278866
18:26:17:70,2.2412415,0.09877014,10.029572,-0.17507935,-0.07733154,-0.15394592,7.6499937,-41.324616500000005,-264.45007,10.27741375566158,0.24562632627599285,267.7698547158076,44.434937499996416,26.047666572776116
18:26:17:71,2.4399567,0.26158142,9.902679,-0.12927246,-0.118881226,-0.15820312,8.399963,-41.09955,-263.5498,10.202199023455927,0.2363733106495932,266.8674380074195,44.434937499996416,26.04766660276357
18:26:17:72,2.49263,0.3501587,9.670441,-0.10797119,-0.13378906,-0.18270874,7.57522565,-41.024781000000004,-263.84964,9.992659534206432,0.25087800644553776,267.1287267259121,44.43493749999641,26.047666632751024
18:26:17:73,2.5381165,0.3381958,9.68959,-0.12394714,-0.16148376,-0.20826721,6.7504883,-40.950012,-264.14948,10.022203656622125,0.29123037104515953,267.3900154444047,44.43493749999641,26.04766666273848
18:26:17:74,2.705719,0.3022766,9.78775,-0.15377808,-0.16680908,-0.23490906,6.1500549499999995,-41.3253785,-264.14948,10.15934724834074,0.326581128556162,267.43421122825043,44.43493749999641,26.047666692725933
18:26:17:75,2.7512054,0.31903076,10.053513,-0.18891907,-0.14550781,-0.26792908,5.5496216,-41.700745,-264.14948,10.428040823663107,0.35867663666638144,267.4784070120962,44.43493749999641,26.047666722713387
18:26:17:76,2.6650238,0.29748535,10.338425,-0.21768188,-0.11248779,-0.29988098,5.5496216,-41.700745,-264.14948,10.680537480326358,0.3872563827042479,267.4784070120962,44.4349374999964,26.04766675270084
18:26:17:77,2.4782715,0.21130371,10.735855,-0.2230072,-0.08477783,-0.31585693,5.5496216,-41.700745,-264.14948,11.020211498269761,0.39583467753643536,267.4784070120962,44.4349374999964,26.047666782688296
18:26:17:78,2.3370056,0.18257141,11.042313,-0.20491028,-0.09011841,-0.30841064,5.8494568000000005,-41.625214,-264.74991,11.288383581547437,0.38108617599673716,268.06622320761204,44.4349374999964,26.04766681267575
18:26:17:79,2.281952,0.2232666,11.406235,-0.16975403,-0.10076904,-0.28071594,6.149292,-41.549683,-265.35034,11.63440371399431,0.3431796455121517,268.65403940312785,44.4349374999964,26.047666842663205
18:26:17:80,2.523758,0.21130371,11.863525,-0.11541748,-0.13058472,-0.25300598,6.5994262500000005,-41.625214,-265.12527,12.13083793997961,0.30722237825846804,268.4545377551294,44.4349374999964,26.04766687265066
18:26:17:81,2.9044342,0.165802,11.968872,-0.020614624,-0.13165283,-0.24662781,7.0495605,-41.700745,-264.9002,12.317350578664133,0.2803260726993948,268.25503610713105,44.434937499996394,26.047666902638113
18:26:17:82,3.1342773,0.11791992,11.614532,0.07418823,-0.107162476,-0.26260376,6.9000243999999995,-42.8253175,-264.9002,12.030584062291078,0.2931696172851496,268.43060614477486,44.434937499996394,26.047666932625567
18:26:17:83,3.3449707,0.12750244,10.745438,0.11894226,-0.081588745,-0.29136658,6.7504883,-43.94989,-264.9002,11.254755602318001,0.3251130087607677,268.6061761824186,44.434937499996394,26.04766696261302
18:26:17:84,3.428772,0.06047058,9.907471,0.07525635,-0.07733154,-0.33503723,6.52542115,-42.9748535,-264.15023499999995,10.484184075781506,0.35198527068638397,267.7041575440361,44.434937499996394,26.047666992600476
18:26:17:85,3.5029907,-0.05445862,9.476501,-0.028076172,-0.093307495,-0.37445068,6.300354,-41.999817,-263.40027,10.103364825075843,0.3869210149498357,266.80213890565363,44.43493749999639,26.04766702258793
18:26:17:86,3.71846,-0.2220459,9.545944,-0.15483093,-0.118881226,-0.41706848,6.9755555,-43.199920500000005,-263.700105,10.247014004305978,0.4604904774145046,267.3094938833656,44.43493749999639,26.047667052575385
18:26:17:87,3.7950745,-0.28430176,9.715927,-0.26029968,-0.13165283,-0.47138977,7.650757,-44.400024,-263.99994,10.434685209464556,0.554343491272121,267.81684886107746,44.43493749999639,26.04766708256284
18:26:17:88,3.6849518,-0.3657074,10.391098,-0.32633972,-0.15402222,-0.5289154,7.725524999999999,-43.800354,-264.07471,11.031207065246395,0.6402905258244626,267.79465547505663,44.43493749999639,26.047667112550293
18:26:17:89,3.483841,-0.46865845,10.733459,-0.37002563,-0.16574097,-0.5757904,7.800293,-43.200684,-264.14948,11.294420346379818,0.7042184467376567,267.7724620890358,44.43493749999638,26.047667142537748
18:26:17:90,3.2204742,-0.5548401,11.130905,-0.4105072,-0.14657593,-0.60028076,7.725524999999999,-43.424988,-264.07471,11.600704622067516,0.7418474609603934,267.7329372934745,44.43493749999638,26.047667172525202
18:26:17:91,3.0480957,-0.5644226,11.56665,-0.41688538,-0.03791809,-0.61094666,7.650757,-43.649292,-263.99994,11.974842482899273,0.7405990973341435,267.6934124979132,44.43493749999638,26.047667202512656
18:26:17:92,2.839798,-0.63145447,11.897049,-0.3678894,0.0867157,-0.5928345,8.10012825,-44.174957500000005,-264.07471,12.247569650215834,0.7030753641318261,267.86740187332555,44.43493749999638,26.047667232500114
18:26:17:93,2.6171265,-0.69610596,11.961685,-0.33166504,0.15063477,-0.5757904,8.5494995,-44.700623,-264.14948,12.264412854424576,0.6813421441708377,268.04139124873797,44.43493749999638,26.04766726248757
18:26:17:94,2.4423523,-0.7224426,11.5594635,-0.24432373,0.27526855,-0.5342407,8.649699,-44.850667666666666,-264.19983333333334,11.836731156676757,0.6487526379111729,268.11939434686707,44.43493749999637,26.047667292475023
18:26:17:95,2.365738,-0.64582825,11.351166,-0.15589905,0.34239197,-0.4767151,8.749898499999999,-45.00071233333333,-264.25018666666665,11.61304352754686,0.6072841686388617,268.1973974449961,44.43493749999637,26.047667322462477
18:26:17:96,2.2963104,-0.49499512,10.608963,-0.06428528,0.34451294,-0.41600037,8.850098,-45.150757,-264.30054,10.865917244178743,0.5439467537289463,268.2754005431252,44.43493749999637,26.04766735244993
18:26:17:97,2.4830627,-0.33937073,10.079849,0.028396606,0.30403137,-0.3712616,8.850098,-45.150757,-263.99994,10.386728490112418,0.48070429248234947,267.97925929498024,44.43493749999637,26.047667382437385
18:26:17:98,2.5692444,-0.21965027,9.560303,0.09550476,0.2592926,-0.34675598,9.375,-44.2504885,-265.04974500000003,9.901952154997085,0.44338867967414103,268.8842367893812,44.434937499996366,26.04766741242484
