,ax,ay,az,gx,gy,gz,mx,my,mz,a_total,g_total,m_total,lat,long
13:03:23:30,-0.06437683,-0.7056732,9.241882,0.007080078,-0.017669678,-0.043151855,55.200195,-48.599243,-263.25073,9.269007602940192,0.04716383800170204,273.3311083534839,44.4349375,26.0476015
13:03:23:31,-0.0332489,-0.67456055,9.304123,-0.032333374,-0.025131226,-0.019714355,55.15035,-48.74928766666667,-262.80059666666665,9.328603444465656,0.04544976773926328,272.9144844937559,44.43493749999999,26.047601574086652
13:03:23:32,0.19898987,-0.63145447,9.462143,-0.112228392,-0.0038223270000000004,0.019699097500000002,55.100505,-48.899332333333334,-262.3504633333333,9.485277110790943,0.12361031200204552,272.4978606340279,44.43493749999999,26.047601648173302
13:03:23:33,0.33546448,-0.6194916,9.529175,-0.19212341,0.017486572,0.05911255,55.05066,-49.049377,-261.90033,9.555180921386954,0.20177085626482774,272.0812367742999,44.43493749999998,26.047601722259955
13:03:23:34,0.36418152,-0.5907593,9.601013,-0.22407532,0.021743774,0.06550598,55.05066,-48.899840999999995,-262.79983500000003,9.626062297544879,0.23446444113473983,272.92059256203083,44.43493749999998,26.04760179634661
13:03:23:35,0.31869507,-0.58836365,9.876343,-0.27627563,0.012161255,0.08255005,55.05066,-48.750305,-263.69934,9.89898426031341,0.2886011618307771,273.75994834976177,44.434937499999975,26.047601870433258
13:03:23:36,0.39291382,-0.59794617,10.441376,-0.23899841,-0.038986206,0.097457886,53.100586,-49.80011,-263.69934,10.465861343699364,0.2610329553607964,273.5636399560276,44.434937499999975,26.04760194451991
13:03:23:37,0.36418915,-0.62906647,10.660446499999999,-0.164962767,-0.098640443,0.094795228,53.100586,-48.899841499999994,-263.92440999999997,10.685275881525829,0.23275805196652052,273.6198437743951,44.43493749999997,26.047602018606565
13:03:23:38,0.33546448,-0.66018677,10.879517,-0.090927124,-0.15829468,0.09213257,53.100586,-47.999573,-264.14948,10.904690419352294,0.20448314857224464,273.6760475927627,44.43493749999996,26.047602092693214
13:03:23:39,0.23490906,-0.69610596,10.87233,0.052886963,-0.26055908,0.095336914,53.100586,-47.999573,-263.549805,10.897123721556877,0.28244856557761655,273.0973373392935,44.43493749999996,26.047602166779868
13:03:23:40,0.24926758,-0.77272034,10.10379,0.22439575,-0.3436432,0.14007568,53.100586,-47.999573,-262.95013,10.13636046194041,0.43366496013831335,272.5186270858244,44.434937499999954,26.04760224086652
13:03:23:41,0.32588196,-0.7272339,9.902679,0.24464417,-0.36175537,0.16244507,52.950287,-48.374939,-262.95013,9.934692726712973,0.46594647590268423,272.556050331995,44.434937499999954,26.047602314953174
13:03:23:42,0.65148926,-0.56921387,9.617767,0.24783325,-0.3713379,0.18374634,52.799988,-48.750305,-262.95013,9.656597990596104,0.48277932147656044,272.5934735781656,44.43493749999995,26.047602389039824
13:03:23:43,1.0465393,-0.3585205,9.522003,0.19829559000000002,-0.328727725,0.19333649,52.874756,-48.300171,-262.875365,9.586048330118816,0.43189648173006057,272.4560492626407,44.43493749999995,26.047602463126477
13:03:23:44,1.2500458,-0.2675476,9.502838,0.14875793,-0.28611755,0.20292664,52.949524,-47.850037,-262.8006,9.588437113242565,0.38101364198356075,272.31862494711584,44.43493749999994,26.04760253721313
13:03:23:45,1.3362274,-0.14543152,9.466934,0.06781006,-0.20835876,0.17095947,52.5749205,-48.9753725,-263.55057,9.561877083077164,0.2779185447008207,273.1718387998882,44.43493749999993,26.04760261129978
13:03:23:46,1.230896,-0.34654236,9.850006,-0.0110321045,-0.10395813,0.1177063,52.200317,-50.100708,-264.30054,9.93266403187616,0.1574286288528418,274.02505265266046,44.43493749999993,26.047602685386433
13:03:23:47,1.1494904,-0.59555054,10.132523,-0.03765869,-0.027267456,0.06976318,52.8755185,-50.325012,-263.99994000000004,10.214892606920323,0.08383670063248216,273.9068787272071,44.434937499999926,26.047602759473087
13:03:23:48,1.15786745,-0.58118439,10.179207000000002,-0.029129028,-0.03791809,0.05911255,53.55072,-50.549316,-263.69934,10.261334541840432,0.07603009528453443,273.78870480175374,44.434937499999926,26.047602833559736
13:03:23:49,1.1662445,-0.56681824,10.225891,0.070999146,-0.1721344,0.038864136,53.325653,-49.424743,-264.074705,10.30777647676054,0.19021448804735092,273.9038577085171,44.43493749999992,26.04760290764639
13:03:23:50,1.0992126,-0.49499512,10.204346,0.17326355,-0.31488037,0.0069122314,53.100586,-48.30017,-264.45007,10.275308549943333,0.35946861352956333,274.0190106152805,44.43493749999992,26.047602981733043
13:03:23:51,1.1303406,-0.45428467,10.216324,0.22546387,-0.38412476,-0.011199951,52.950287,-48.6747735,-263.1752,10.288698678957479,0.4455459873266024,272.8269038350354,44.43493749999991,26.047603055819692
13:03:23:52,1.1949768,-0.427948,10.249832,0.3575592,-0.50982666,-0.05168152,52.799988,-49.049377,-261.90033,10.32812495429186,0.62485421040504,271.6347970547904,44.434937499999904,26.047603129906346
13:03:23:53,1.259613,-0.49020386,10.2211,0.45343018,-0.55882263,-0.06340027,52.450053,-49.49951133333333,-262.6002,10.31008292615185,0.722427334872527,272.3247189010795,44.434937499999904,26.047603203993
13:03:23:54,1.3003235,-0.4925995,10.072662,0.49710083,-0.5449829,-0.0740509,52.100118,-49.94964566666667,-263.30007,10.168186428183567,0.7413495344774345,273.01464074736856,44.4349374999999,26.04760327807965
13:03:23:55,1.3577881,-0.2172699,9.5746765,0.5471802,-0.3244629,-0.16992188,51.750183,-50.39978,-263.99994,9.672911909740515,0.6584495349312538,273.70456259365767,44.4349374999999,26.047603352166302
13:03:23:56,0.96513367,-0.13346863,9.37117,0.5343933,-0.2509613,-0.21253967,50.100708,-49.80011,-263.40027,9.421683716038324,0.6274797881257124,272.7083316185742,44.43493749999989,26.047603426252955
13:03:23:57,0.623962405,-0.163391115,9.146110499999999,0.5221405,-0.215278625,-0.173652645,51.300049,-50.4753115,-263.475035,9.17465446389232,0.5923085320148325,273.1304960080603,44.43493749999989,26.047603500339605
13:03:23:58,0.28279114,-0.1933136,8.921051,0.5098877,-0.17959595,-0.13476562,52.49939,-51.150513,-263.5498,8.927625211746317,0.5571372759039526,273.5526603975463,44.43493749999988,26.047603574426258
13:03:23:59,0.20378113,-0.19570923,8.786972,0.46194458,-0.17745972,-0.016525269,52.49939,-50.90026866666666,-263.04982333333334,8.79151328159352,0.4951341552845826,273.0243576066396,44.434937499999876,26.04760364851291
13:03:23:60,0.11039734,-0.04008484,8.523621,0.42359924,-0.16680908,0.052719116,52.49939,-50.650024333333334,-262.54984666666667,8.524430146274758,0.45830218250718097,272.4960548157329,44.434937499999876,26.04760372259956
13:03:23:61,0.3282776,0.18257141,8.382355,0.18391418,0.026000977,0.33181763,52.49939,-50.39978,-262.04987,8.390767178776692,0.3802675584228082,271.96775202482627,44.43493749999987,26.047603796686214
13:03:23:62,0.4982605,0.31903076,8.267441,0.09336853,0.113357544,0.3722992,50.849915,-50.99945,-262.95013,8.288584006943974,0.40021782755983376,272.6342396376996,44.43493749999987,26.047603870772868
13:03:23:63,0.646698,0.45550537,8.2387085,-0.110099795,0.25183868200000004,0.39520264,51.225281,-51.14975,-263.1752,8.276594782473953,0.5262558215906967,272.94986126182715,44.43493749999986,26.04760394485952
13:03:23:64,0.9986572,0.7906952,9.071884,-0.31356812,0.39031982,0.41810608,51.600647,-51.30005,-263.40027,9.160873015814099,0.6522938156215596,273.2654828859547,44.43493749999986,26.04760401894617
13:03:23:65,1.127945,0.80267334,9.265823,-0.3359375,0.37008667,0.42129517,51.525116,-51.599885,-263.10043499999995,9.368672279522897,0.6536878211220306,273.0189541746082,44.434937499999855,26.047604093032824
13:03:23:66,1.2931366,0.84576416,9.715927,-0.34552002,0.3338623,0.4042511,51.449585,-51.89972,-262.8006,9.83802605962848,0.6279068971060123,272.77242546326164,44.43493749999985,26.047604167119477
13:03:23:67,1.2931366,0.8002777,10.158859,-0.27520752,0.281662,0.35099792,51.499939,-51.69983,-262.50050999999996,10.272052513750982,0.5275151193595088,272.45494562125975,44.43493749999985,26.047604241206127
13:03:23:68,1.16145325,0.8038635199999999,10.16125475,-0.21129608,0.20070649000000002,0.31584167,51.550293,-51.49994,-262.20042,10.25979908482568,0.43320285639780026,272.1374657792578,44.43493749999984,26.04760431529278
13:03:23:69,1.0297699,0.80744934,10.1636505,-0.14738464,0.11975098,0.28068542,51.600647,-51.30005,-261.90033,10.247545655900376,0.33889059343609174,271.8199859372559,44.43493749999984,26.047604389379433
13:03:23:70,0.91485596,0.7978821,10.094208,-0.12394714,0.089920044,0.25831604,50.849915,-49.049377,-262.64954,10.166937219256935,0.30029266449319597,271.98591158699185,44.43493749999983,26.047604463466083
13:03:23:71,0.53178406,0.77394104,9.601013,-0.07814026,0.068618774,0.22636414,51.449585,-49.6498105,-262.124635,9.64682484789868,0.2491087317941109,271.70278475237,44.43493749999983,26.047604537552736
13:03:23:72,0.30194092,0.79548645,9.136536,-0.09944153,0.06008911,0.23806763,52.049255,-50.250244,-261.59973,9.176069806327764,0.26490661653335484,271.4196579177482,44.434937499999826,26.04760461163939
13:03:23:73,0.362991335,0.945121775,9.0503465,-0.180404665,0.069145202,0.263641365,51.449585,-50.775147000000004,-262.5,9.10838929287694,0.3312458781279052,272.2721876284418,44.43493749999982,26.04760468572604
13:03:23:74,0.42404175,1.0947571,8.964157,-0.2613678,0.078201294,0.2892151,50.849915,-51.30005,-263.40027,9.040708779426117,0.39758513972245546,273.12471733913543,44.43493749999982,26.047604759812693
13:03:23:75,0.66586304,1.1785583,9.033585,-0.3401947,0.092041016,0.29559326,51.34989466666667,-50.80007,-263.0503333333333,9.134442030401306,0.45997756237867726,272.78921600651364,44.43493749999981,26.047604833899346
13:03:23:76,0.7735901,1.1881409,9.024002,-0.3860016,0.092041016,0.29026794,51.84987433333333,-50.30009,-262.7003966666667,9.134699367635195,0.49165461537619665,272.4537146738919,44.43493749999981,26.047604907985995
13:03:23:77,0.9603424,1.1330719,9.160477,-0.521286,0.054763794,0.22741699,52.349854,-49.80011,-262.35046,9.280110361592493,0.5713638545357368,272.1182133412701,44.434937499999805,26.04760498207265
13:03:23:78,1.1016083,1.1665802,9.340042,-0.5639038,0.049438477,0.19760132,51.30005,-49.049377,-261.1496,9.476857853287921,0.5995647924355314,270.6227080166235,44.434937499999805,26.047605056159302
13:03:23:79,1.527771,1.0851898,10.144485,-0.63420105,0.09524536,0.06976318,51.14975,-49.3499755,-262.57477,10.316118312897057,0.6450965444848892,272.02464132782904,44.4349374999998,26.04760513024595
13:03:23:80,1.4870758,0.9104004,10.570663,-0.64805603,0.103759766,-0.03036499,50.99945,-49.650574,-263.99994,10.713502675728177,0.6570119783363434,273.42657463903464,44.43493749999979,26.047605204332605
13:03:23:81,1.3745422,0.7643585,11.011185,-0.6278076,0.09843445,-0.13157654,51.349385000000005,-49.70041933333333,-263.6500033333333,11.122940496124578,0.6489561691231035,273.1640023511621,44.43493749999979,26.047605278419258
13:03:23:82,0.9902725,0.53930663,11.2290575,-0.5345993,0.146903995,-0.19975281,51.69932,-49.750264666666666,-263.3000666666667,11.295103517479912,0.6005137828519984,272.90143006328947,44.43493749999978,26.047605352505908
13:03:23:83,0.6060028,0.31425476,11.44693,-0.441391,0.19537354,-0.26792908,52.049255,-49.80011,-262.95013,11.467266538835247,0.5520713965808933,272.6388577754169,44.43493749999978,26.04760542659256
13:03:23:84,0.19419861,0.16342163,11.176392,-0.31889343,0.2124176,-0.2498169,52.349854,-48.30017,-261.90033,11.17927358404569,0.45740872314871184,271.4133314521582,44.434937499999776,26.047605500679214
13:03:23:85,-0.07873535,0.18736267,10.8914795,-0.20170593,0.1889801,-0.18910217,52.199554500000005,-48.5252375,-262.125395,10.893375497262978,0.3349005689632131,271.6418350586139,44.434937499999776,26.047605574765868
13:03:23:86,-0.14099121,0.27593994,10.625732,-0.102645874,0.11868286,-0.11772156,52.049255,-48.750305,-262.35046,10.630249381251996,0.19616361129383064,271.8703386650696,44.43493749999977,26.047605648852517
13:03:23:87,-0.07633972,0.3310089,10.489258,-0.060028076,0.08139038,-0.08895874,52.4246215,-48.750305,-262.875365,10.494757168953118,0.1346900935005755,272.4490268768021,44.43493749999976,26.04760572293917
13:03:23:88,0.10800171,0.49142456,9.845215,0.017730713,-0.009155273,-0.02078247,52.799988,-48.750305,-263.40027,9.858063748209336,0.028811599512935722,273.02771508853465,44.43493749999976,26.047605797025824
13:03:23:89,0.18701172,0.5297241,9.684799,0.020935059,-0.03364563,-0.002670288,52.799988,-48.5252375,-262.875365,9.701077913094975,0.03971694287622507,272.48123324248456,44.434937499999755,26.047605871112474
13:03:23:90,0.5006561,0.7021179,9.385529,-0.0035705566,-0.08905029,0.030349731,52.799988,-48.30017,-262.35046,9.42506130939256,0.09414780504764976,271.9347513964345,44.434937499999755,26.047605945199127
13:03:23:91,0.6969757,0.754776,9.373566,-0.02168274,-0.107162476,0.0154418945,52.5001525,-48.600004999999996,-263.1752,9.429697847382094,0.11041915405448145,272.72632034803684,44.43493749999975,26.04760601928578
13:03:23:92,0.9124603,0.80267334,9.524399,-0.020614624,-0.13378906,-0.022918701,52.200317,-48.89984,-263.99994,9.601616770160318,0.1372943631540362,273.5178892996392,44.43493749999975,26.04760609337243
13:03:23:93,0.94358826,0.7619629,9.6345215,-0.0025024414,-0.17745972,-0.07511902,52.900186999999995,-48.849995,-263.4501133333333,9.710558727454794,0.19272021586019258,273.1153220059943,44.43493749999974,26.047606167459083
13:03:23:94,0.9986572300000001,0.7033081,9.749443249999999,0.0363769543,-0.227531435,-0.11878967499999998,53.600057,-48.800149999999995,-262.90028666666666,9.825983882077697,0.26152698258188134,272.71275471234935,44.434937499999734,26.047606241545736
13:03:23:95,1.0537262,0.6446533,9.864365,0.07525635,-0.27760315,-0.16246033,54.299927,-48.750305,-262.35046,9.941409036700598,0.3303337493035701,272.31018741870446,44.434937499999734,26.047606315632386
13:03:23:96,0.9747162,0.5345154,9.80452,0.12106323,-0.3127594,-0.21466064,51.449585,-48.599243,-262.5,9.867339601624117,0.39818832015969846,271.8734930382976,44.43493749999973,26.04760638971904
13:03:23:97,0.8406372,0.4938202,9.598618,0.13171387,-0.35110474,-0.25300598,51.8997195,-49.424743500000005,-262.20016499999997,9.648004809382916,0.4523661215394063,271.82031532898486,44.43493749999973,26.047606463805693
13:03:23:98,0.7544403,0.4985962,9.557907,0.09762573,-0.38198853,-0.27005005,52.349854,-50.250244,-261.90033,9.600591885793685,0.47788392912358574,271.76713761967204,44.43493749999972,26.047606537892342
13:03:23:99,0.7113495,0.4507141,9.603409,0.06781006,-0.39263916,-0.27111816,52.349854,-49.874877,-261.524965,9.640260667241838,0.48194270498109504,271.3363486670813,44.43493749999972,26.047606611978996
13:03:24:00,0.7712097,0.29748535,9.80452,-0.04084778,-0.3479004,-0.26367188,52.349854,-49.49951,-261.1496,9.839302534490884,0.4384359585547504,270.9055597144906,44.43493749999971,26.04760668606565
13:03:24:01,0.83584595,0.2591858,10.158859,-0.11541748,-0.2658844,-0.2498169,52.39969933333333,-49.29962,-261.09975333333335,10.196481349609483,0.38265414198531866,270.8308344629324,44.434937499999705,26.0476067601523
13:03:24:02,0.87416077,0.23284912,10.331238,-0.13726044,-0.191848755,-0.235969545,52.44954466666667,-49.09973,-261.0499066666667,10.370769227841095,0.34009878207194033,270.75610921137417,44.434937499999705,26.04760683423895
13:03:24:03,1.151886,0.07003784,10.848389,-0.1591034,-0.11781311,-0.22212219,52.49939,-48.89984,-261.00006,10.909596259777391,0.29754342215856194,270.68138395981595,44.4349374999997,26.047606908325605
13:03:24:04,1.3362274,0.07003784,11.236252,-0.12287903,-0.10821533,-0.22958374,54.600525,-48.750305,-262.35046,11.315642622981986,0.2819902610607987,272.3702873480884,44.4349374999997,26.047606982412255
13:03:24:05,1.6690216,0.17538452,11.98085,-0.050445557,-0.14976501,-0.2551422,53.9253235,-49.0501405,-262.20016499999997,12.097816313435338,0.3001197338766319,272.14573538284816,44.43493749999969,26.047607056498908
13:03:24:06,2.0042114,0.18496704,12.665588,0.06993103,-0.21582031,-0.31266785,53.250122,-49.349976,-262.04987,12.824515411021203,0.3863029117013998,271.9211834176079,44.43493749999969,26.04760713058556
13:03:24:07,2.0712585,0.16342163,12.818817,0.14556885,-0.24137878,-0.34994507,52.4253845,-49.424743,-262.20016499999997,12.986103637445032,0.4493501502635954,271.9206889094811,44.434937499999684,26.047607204672214
13:03:24:08,1.9419708,0.038909912,12.89064,0.4033661,-0.2658844,-0.47564697,51.600647,-49.49951,-262.35046,13.03615603538499,0.6779666399335228,271.92019440135425,44.43493749999968,26.047607278758864
13:03:24:09,1.4703064,-0.025726318,12.337585,0.55036926,-0.24884033,-0.54063416,51.900228,-49.69990933333333,-261.6500833333333,12.424913133923464,0.8106251458882595,271.3393574320747,44.43493749999968,26.047607352845517
13:03:24:10,0.93640137,0.06764221,11.892258,0.6355896,-0.22219849,-0.555542,52.199809,-49.90030866666667,-260.94970666666666,11.929259127576849,0.872910775709889,270.7585204627951,44.43493749999967,26.04760742693217
13:03:24:11,0.55332947,0.13468933,11.592987,0.6600952,-0.22540283,-0.5278473,52.49939,-50.100708,-260.24933,11.60696611092474,0.8747313192931524,270.17768349351553,44.43493749999967,26.04760750101882
13:03:24:12,0.40968323,0.11074829,11.545105,0.665420525,-0.20889281999999998,-0.48044586499999997,53.3996585,-49.95040899999999,-260.324865,11.552902448895955,0.8479867195149613,270.4004278622651,44.43493749999966,26.047607575105474
13:03:24:13,0.5485382,0.08680725,11.885071,0.67074585,-0.19238281,-0.43304443,54.299927,-49.80011,-260.4004,11.89803943221541,0.8212421197367701,270.6231722310146,44.43493749999966,26.047607649192127
13:03:24:14,0.66825867,0.06047058,11.916199,0.7357178,-0.17745972,-0.37338257,53.324890499999995,-50.025177,-260.62546,11.935075406074178,0.8439118301334111,270.68937973409834,44.434937499999656,26.047607723278777
13:03:24:15,1.230896,-0.06404114,11.648056,0.9040375,-0.18492126,-0.34461975,52.349854,-50.250244,-260.85052,11.713087330399468,0.9850088557451147,270.755587237182,44.43493749999965,26.04760779736543
13:03:24:16,1.6379089,0.022155762,11.03035,1.0105591,-0.17533875,-0.37445068,53.55072,-52.799988,-261.1496,11.151316405025419,1.09187301624174,271.7620869905855,44.43493749999965,26.047607871452083
13:03:24:17,1.5936126499999999,0.14904785099999998,10.107384,0.9908523650000001,-0.15829468,-0.44209288999999996,53.55072,-52.799988,-261.1496,10.234790583024132,1.0988617837380819,271.7620869905855,44.43493749999964,26.047607945538733
13:03:24:18,1.5493164,0.27593994,9.184418,0.97114563,-0.14125061,-0.5097351,53.55072,-52.799988,-261.1496,9.318264761022848,1.1058505512344239,271.7620869905855,44.43493749999964,26.047608019625386
13:03:24:19,1.4128418,0.41241455,8.540375,0.77726746,-0.051757812,-0.56726074,53.55072,-52.649688999999995,-259.72443,8.666268681128225,0.9636432548527628,270.3637313025325,44.434937499999634,26.04760809371204
13:03:24:20,1.3506012,0.5560608,8.353622,0.482193,0.051574707,-0.6173401,53.55072,-52.49939,-258.29926,8.480349505393164,0.7850342914288176,268.96537561447957,44.434937499999634,26.04760816779869
13:03:24:21,1.3649597,0.6135254,8.657684,0.15835571,0.18260193,-0.66526794,53.45052066666666,-53.14941433333333,-258.19956666666667,8.786069692582984,0.7078145433100204,268.97903129800886,44.43493749999963,26.047608241885342
13:03:24:22,1.2811737,0.6278839,8.885147,-0.0014343262,0.25610352,-0.6908417,53.35032133333333,-53.79943866666667,-258.09987333333333,8.99897113302737,0.7367858065319448,268.9926869815381,44.43493749999963,26.047608315971996
13:03:24:23,0.70895386,0.2879181,9.435806,-0.4179535,0.422287,-0.7558136,53.250122,-54.449463,-258.00018,9.466781252228897,0.9613873498627958,269.0063426650674,44.43493749999962,26.047608390058645
13:03:24:24,0.18461609,0.038909912,9.823669,-0.6320801,0.44252014,-0.7462311,53.8497925,-53.3996585,-258.37478999999996,9.825480634732315,1.0734105373662213,269.27752278262386,44.43493749999961,26.0476084641453
13:03:24:25,-0.03564453,-0.07121277,10.019989,-0.7173004,0.4276123,-0.72065735,54.449463,-52.349854,-258.7494,10.020305451993517,1.103049934980494,269.54870290018033,44.43493749999961,26.04760853823195
13:03:24:26,-0.21520996,-0.3297882,10.666428,-0.90478516,0.3019104,-0.5939026,54.7500615,-52.424622,-259.04999999999995,10.673694855247009,1.1236130889550662,269.91270170379096,44.434937499999606,26.047608612318605
13:03:24:27,0.11279297,-0.40879822,11.511581,-0.952713,0.21136475,-0.51187134,55.05066,-52.49939,-259.3506,11.519389539307957,1.1019752205131286,270.27670050740164,44.434937499999606,26.047608686405255
13:03:24:28,0.45277405,-0.6051178,12.15802,-0.88986206,0.16874695,-0.46287537,53.849792,-50.99945,-258.59985,12.181486863787617,1.0171448407745984,269.02532672365305,44.4349374999996,26.047608760491908
13:03:24:29,0.78796387,-0.8684845,12.505173,-0.7173004,0.2273407,-0.44155884,54.059753,-50.8197016,-258.62976,12.560035993065252,0.8724550801610336,269.06273483370484,44.4349374999996,26.04760883457856
13:03:24:30,0.6820182825,-0.8750686675,11.941337749999999,-0.513832081,0.313892365,-0.4290428175,54.269714,-50.6399532,-258.65967,11.993842124305303,0.8296180616131371,269.1001429437566,44.43493749999959,26.04760890866521
13:03:24:31,0.576072695,-0.881652835,11.377502499999999,-0.310363762,0.40044402999999995,-0.416526795,54.479675,-50.4602048,-258.68958,11.427648255545352,0.7867810430652407,269.1375510538084,44.434937499999585,26.047608982751864
13:03:24:32,0.4701271075,-0.8882370025,10.81366725,-0.10689544299999998,0.48699569499999995,-0.4040107725,54.689636,-50.2804564,-258.71949,10.8614543867854,0.7439440245173443,269.1749591638602,44.434937499999585,26.047609056838517
13:03:24:33,0.36418152,-0.89482117,10.249832,0.096572876,0.57354736,-0.39149475,54.899597,-50.100708,-258.7494,10.29526051802545,0.7011070059694479,269.212367273912,44.43493749999958,26.047609130925167
13:03:24:34,0.18940735,-1.0432587,9.510025,0.23931885,0.54904175,-0.31373596,55.65033,-50.849915,-259.95026,9.568951842285797,0.6761291354508446,270.65995410973477,44.43493749999958,26.04760920501182
13:03:24:35,0.16786194,-0.9762268,8.882751,0.34902954,0.45317078,-0.21998596,55.95042,-50.49998,-259.6501733333333,8.937810790341214,0.6128451666086154,270.36890667016866,44.43493749999957,26.047609279098474
13:03:24:36,0.16786194,-0.83496094,8.178848,0.42253113,0.29658508,-0.12411499,56.25051,-50.150045,-259.3500866666667,8.223070716546845,0.5309423662134934,270.07785923060254,44.43493749999957,26.047609353185123
13:03:24:37,0.34024048,-0.6625824,7.6856384,0.43852234,0.103759766,-0.031433105,56.5506,-49.80011,-259.05,7.721645979749068,0.45172554921034896,269.7868117910364,44.43493749999956,26.047609427271777
13:03:24:38,0.65148926,-0.53808594,7.51326,0.39057922,-0.10928345,0.038864136,56.5506,-49.80011,-258.59985,7.560625011354619,0.4074376278729511,269.354605931279,44.434937499999556,26.04760950135843
13:03:24:39,1.1303406,-0.44711304,7.5827026,0.32772827,-0.2701416,0.07827759,55.200196000000005,-50.39978,-257.849875,7.679515522648103,0.43186766966741214,268.4692146968385,44.434937499999556,26.04760957544508
13:03:24:40,1.3721466,-0.5907593,7.664093,0.2584839,-0.3127594,0.099594116,53.849792,-50.99945,-257.0999,7.808335568805752,0.4177934379443883,267.58382346239796,44.43493749999955,26.047609649531733
13:03:24:41,1.5732574,-0.6506195,7.5467834,0.22439575,-0.28825378,0.109176636,54.899596,-50.699615,-257.77511,7.736432269912958,0.3812653041526693,268.39042685349773,44.43493749999955,26.047609723618386
13:03:24:42,1.7552185,-0.5740051,7.59227,0.08590698,-0.17533875,0.14112854,55.9494,-50.39978,-258.45032,7.813631523847811,0.2409168970139174,269.19703024459756,44.43493749999954,26.047609797705036
13:03:24:43,2.1143494,-0.39683533,8.152512,0.002822876,-0.16680908,0.145401,56.1498,-50.34993466666667,-257.7504466666667,8.43157183297163,0.22130225620259225,268.5581076947675,44.43493749999954,26.04760987179169
13:03:24:44,2.3034973,-0.43034363,8.727127,-0.022750854,-0.16680908,0.1177063,56.3502,-50.30008933333333,-257.0505733333333,9.036262563976207,0.205420650344277,267.9191851449374,44.434937499999535,26.047609945878342
13:03:24:45,2.365738,-0.51174927,8.959366,0.0049591064,-0.15296936,0.09638977,56.5506,-50.250244,-256.3507,9.28056262960094,0.1808734518821074,267.28026259510733,44.43493749999953,26.047610019964992
13:03:24:46,2.3848877,-0.5332947,8.940201,0.020935059,-0.15083313,0.083618164,56.625367,-50.7003785,-256.50024,9.268186796728925,0.17372652978650463,267.52477357387073,44.43493749999953,26.047610094051645
13:03:24:47,2.2053223,-0.3154297,8.921051,0.06248474,-0.17745972,0.04525757,56.700134,-51.150513,-256.64978,9.195003713273877,0.1935059239342581,267.76928455263413,44.43493749999952,26.0476101681383
13:03:24:48,2.1502686,-0.12867737,8.851624,0.073135376,-0.20089722,0.02609253,55.799865499999996,-50.4005435,-257.69959,9.109964893185488,0.21538174562434642,268.44912240540975,44.43493749999952,26.047610242224952
13:03:24:49,2.0233765,-0.04248047,8.66008,0.06993103,-0.19024658,0.0069122314,54.899597,-49.650574,-258.7494,8.893415691256296,0.20280998274612727,269.1289602581853,44.43493749999951,26.0476103163116
13:03:24:50,1.7432556,0.014968872,8.372787,0.043304443,-0.16574097,-0.0048065186,55.5000305,-50.099945,-257.55005,8.552352091759865,0.1713722455391575,268.1853774464408,44.43493749999951,26.047610390398255
13:03:24:51,1.4463654,0.11314392,8.217163,0.016677856,-0.16362,-0.002670288,56.100464,-50.549316,-256.3507,8.344252044702335,0.16448946993275793,267.24179463469625,44.434937499999506,26.047610464484908
13:03:24:52,1.2165222,0.14425659,8.30574,-0.069610596,-0.18811035,0.028213501,55.350494499999996,-50.549316,-256.57501,8.395597249418964,0.20255157489211167,267.3018060429454,44.4349374999995,26.047610538571558
13:03:24:53,1.254837,0.09397888,8.521225,-0.11009216,-0.17533875,0.06762695,54.600525,-50.549316,-256.79932,8.613635900540494,0.21780120594553787,267.36181745119455,44.4349374999995,26.04761061265821
13:03:24:54,1.4583435,0.1322937,8.624176,-0.1207428,-0.14657593,0.10385132,54.8255925,-50.774383,-256.79932,8.74760990591304,0.2164449668459567,267.4506827958263,44.43493749999949,26.047610686744864
13:03:24:55,1.6929779,0.31425476,8.62178,-0.13459778,-0.11567688,0.11557007,55.05066,-50.99945,-256.79932,8.792043027219046,0.21178796950551204,267.5395481404581,44.43493749999949,26.047610760831514
13:03:24:56,1.8940887,0.5656433,8.494888,-0.15483093,-0.095443726,0.111312866,55.200195,-50.249480000000005,-256.42471,8.721848799357081,0.21324323167350923,267.06966886700206,44.434937499999485,26.047610834918167
13:03:24:57,2.1766052,0.77633667,8.751068,-0.1910553,-0.11248779,0.08680725,55.34973,-49.49951,-256.0501,9.051049660811596,0.23809899035849902,266.599789593546,44.434937499999485,26.04761090900482
13:03:24:58,2.4279938,0.833786,9.062317,-0.21875,-0.1486969,0.041000366,54.824828499999995,-49.874877,-256.42471,9.41891407727682,0.267662773993217,266.92199237678335,44.43493749999948,26.04761098309147
13:03:24:59,2.5524902,0.87210083,9.481293,-0.18252563,-0.14337158,-0.028244019,54.299927,-50.250244,-256.79932,9.857519111350063,0.2338134730246862,267.24419516002075,44.43493749999947,26.047611057178123
13:03:24:60,2.3130646,0.8625183,9.62735,-0.11329651,-0.12313843,-0.10281372,54.675293499999995,-50.624847,-256.19965,9.938816513252876,0.19639203940405375,266.8163812812437,44.43493749999947,26.047611131264777
13:03:24:61,1.9108429,0.967865,9.605789,-0.044052124,-0.16574097,-0.16246033,55.05066,-50.99945,-255.59998,9.841710499665513,0.23622873997285168,266.3885674024666,44.434937499999464,26.047611205351426
13:03:24:62,1.5397491,1.1115265,9.466934,0.0049591064,-0.20515442,-0.19548035,54.150391,-50.325012,-255.52521,9.655524729993138,0.2834175294824676,266.0058817336886,44.434937499999464,26.04761127943808
13:03:24:63,1.2452545,1.0636292,9.146103,0.029449463,-0.15509033,-0.1795044,53.250122,-49.650574,-255.45044,9.291564234910712,0.2390441610871457,265.62319606491064,44.43493749999946,26.047611353524733
13:03:24:64,1.0202026,1.0923615,8.789368,0.006011963,-0.09437561,-0.123046875,54.2251585,-49.650574,-256.05011,8.915551403651543,0.15518837878285568,266.39804064604533,44.43493749999946,26.047611427611383
13:03:24:65,0.9890747,1.3557281,8.71994,-0.055770874,-0.08584595,-0.054870605,55.200195,-49.650574,-256.64978,8.879956139920381,0.11614947615547994,267.17288522718,44.43493749999945,26.047611501698036
13:03:24:66,1.3362274,1.6190948,8.856415,-0.11222839,-0.093307495,-0.0048065186,55.4252625,-50.2502445,-256.64978,9.101816208214863,0.146029458556208,267.3322674630639,44.43493749999944,26.04761157578469
13:03:24:67,1.6115723,1.7388,9.071884,-0.16015625,-0.09649658,0.010101318,55.65033,-50.849915,-256.64978,9.376548940179607,0.1872529064957231,267.4916496989477,44.43493749999944,26.04761164987134
13:03:24:68,1.7671967,1.7531586,9.258636,-0.1867981,-0.08905029,0.0005187988,55.799865,-50.2502445,-255.89981,9.587433954596028,0.2069390090458756,266.6903205148784,44.434937499999435,26.047611723957992
13:03:24:69,1.8102875,1.8369598,9.440598,-0.19958496,-0.079452515,-0.022918701,55.9494,-49.650574,-255.14984,9.786544473769906,0.2160373237511385,265.8889913308091,44.434937499999435,26.047611798044645
13:03:24:70,1.879715,1.908783,9.838028,-0.18359375,-0.07733154,-0.05593872,55.1994315,-49.500275,-255.525205,10.196253034870113,0.2069202080829045,266.0659307148678,44.43493749999943,26.0476118721313
13:03:24:71,1.8725433,1.8680878,10.132523,-0.13673401,-0.051757812,-0.08363342,54.449463,-49.349976,-255.90057,10.472067264127592,0.16843280421166132,266.24287009892646,44.43493749999943,26.04761194621795
13:03:24:72,1.7719727,1.8824463,10.20195,-0.071746826,-0.014480591,-0.12730408,54.7500615,-49.424743,-255.450435,10.524413291220988,0.14684557651298166,265.88619850043096,44.43493749999942,26.0476120203046
13:03:24:73,1.5876312,1.8106232,10.158859,-0.0110321045,0.012161255,-0.15927124,55.05066,-49.49951,-255.0003,10.44037094079864,0.1601153688563704,265.5295269019355,44.434937499999414,26.047612094391255
13:03:24:74,1.1997681,1.7723236,10.048721,0.043304443,0.026000977,-0.18377686,56.1752325,-50.249480000000005,-255.0003,10.274111551503399,0.19059186724504898,265.9088250472614,44.434937499999414,26.047612168477905
13:03:24:75,0.8909149,1.7124634,9.907471,0.08164978,0.06008911,-0.19229126,57.299805,-50.99945,-255.0003,10.093772430128517,0.21737827947388877,266.28812319258725,44.43493749999941,26.047612242564558
13:03:24:76,0.7712097,1.6717682,9.809296,0.10722351,0.11228943,-0.17631531,56.700134500000004,-50.0244135,-254.624935,9.980574198487847,0.23493166182283967,265.61665054424196,44.43493749999941,26.04761231665121
13:03:24:77,0.57966614,1.58078,9.550735,0.11148071,0.1250763,-0.13690186,56.100464,-49.049377,-254.24957,9.69801099620368,0.21636577547119992,264.9451778958967,44.4349374999994,26.04761239073786
13:03:24:78,0.6490936,1.5975494,9.340042,0.09762573,0.103759766,-0.08363342,56.475067,-48.524474999999995,-254.39987000000002,9.497887720370532,0.1652011535652946,265.07314799118933,44.4349374999994,26.047612464824514
13:03:24:79,0.82388306,1.5903625,9.40947,0.05821228,0.06434631,-0.050613403,56.84967,-47.999573,-254.55017,9.578421678902075,0.10045314189538777,265.2011180864819,44.43493749999939,26.047612538911167
13:03:24:80,0.9124603,1.5999298,9.56749,-0.008895874,0.023864746,-0.035705566,56.475067,-48.524474999999995,-254.39987000000002,9.74316293942086,0.04385829589996342,265.07314799118933,44.434937499999386,26.047612612997817
13:03:24:81,1.0106201,1.4036102,9.979294,-0.07067871,-0.0059509277,-0.026107788,56.100464,-49.049377,-254.24957,10.128069081444105,0.07558114964730077,264.9451778958967,44.434937499999386,26.04761268708447
13:03:24:82,0.9579468,1.1641846,10.6783905,-0.12394714,-0.019805908,-0.013320923,57.375336000000004,-49.199676499999995,-253.949735,10.784294669796337,0.12622446076516228,264.961776053589,44.43493749999938,26.047612761171123
13:03:24:83,0.938797,1.0396881,11.571442,-0.13139343,-0.03152466,-0.0048065186,58.650208,-49.349976,-253.6499,11.655923863506256,0.1352077669970651,264.97837421128133,44.43493749999938,26.047612835257773
13:03:24:84,0.91485596,0.82901,12.383072,-0.06428528,-0.02406311,0.036743164,58.049774,-49.124908,-253.80020000000002,12.444464277936255,0.07785685960967983,264.94906543556294,44.43493749999937,26.047612909344426
13:03:24:85,0.7831726,0.63746643,12.984009,-0.013153076,-0.015548706,0.05911255,57.44934,-48.89984,-253.9505,13.023218207603247,0.06252246983316248,264.9197566598445,44.43493749999937,26.04761298343108
13:03:24:86,0.70895386,0.536911,13.338364,0.12852478,0.012161255,0.12515259,57.6744075,-49.64981,-253.9505,13.36797827624005,0.17980457719683202,265.1091748598832,44.434937499999364,26.04761305751773
13:03:24:87,0.63713074,0.5752106,13.30484,0.30003357,0.040908813,0.20932007,57.899475,-50.39978,-253.9505,13.332500524650479,0.3681148812705332,265.29859305992187,44.43493749999936,26.047613131604383
13:03:24:88,0.720932,0.833786,12.861908,0.468338,0.068618774,0.31051636,57.975006,-49.349975,-254.100035,12.909051841358606,0.5661001927370389,265.2630355553747,44.43493749999936,26.047613205691036
13:03:24:89,0.8693695,1.0588531,12.328003,0.60043335,0.05050659,0.40319824,58.050537,-48.30017,-254.24957,12.40389580667779,0.7250103062472617,265.2274780508275,44.43493749999935,26.047613279777686
13:03:24:90,1.2189178,1.315033,11.767761,0.68885803,0.0014953613,0.49693298,57.2250365,-48.2254025,-253.424835,11.90358229052779,0.8493939063900676,264.2440944073777,44.43493749999935,26.04761335386434
13:03:24:91,1.3601837,1.4993744,11.422989,0.7144165,-0.056030273,0.562973,56.399536,-48.150635,-252.6001,11.600987069350696,0.9113006779837841,263.26071076392793,44.43493749999934,26.047613427950992
13:03:24:92,1.6331177,1.7794952,10.944153,0.66542053,-0.11781311,0.6034546,56.774902999999995,-48.5252375,-252.224735,11.20750469445743,0.9059921991355736,263.050913973928,44.43493749999934,26.047613502037645
13:03:24:93,1.8773193,1.9231567,10.778961,0.5525055,-0.17427063,0.623703,57.15027,-48.89984,-251.84937,11.108954032060282,0.851256725212698,262.8411171839281,44.434937499999336,26.047613576124295
13:03:24:94,2.1143494,1.956665,10.810074,0.40548706,-0.20410156,0.6279602,56.925202,-49.500274,-251.625065,11.187346029911712,0.7748620621800484,262.69063159634004,44.43493749999933,26.04761365021095
13:03:24:95,2.2963104,1.7603455,11.051895,0.27020264,-0.17320251,0.6194458,56.700134,-50.100708,-251.40076,11.424370478216444,0.6976544096262202,262.540146008752,44.43493749999933,26.0476137242976
13:03:24:96,2.4303894,1.5688171,11.276947,0.15196228,-0.11993408,0.590683,56.400299000000004,-50.325012,-250.950625,11.64205795251397,0.6215972366229154,262.0876854456326,44.43493749999932,26.04761379838425
13:03:24:97,2.5070038,1.3102417,11.413422,0.052886963,-0.08584595,0.5395508,56.100464,-50.549316,-250.50049,11.758741561736839,0.5488912677091938,261.63522488251317,44.43493749999932,26.047613872470905
13:03:24:98,2.7009277,1.0348969,11.576218,-0.02168274,-0.052825928,0.47669983,56.100464,-49.6498105,-250.12512500000003,11.932093077820879,0.48010774603728035,261.10460039349414,44.434937499999315,26.047613946557558
13:03:24:99,2.6793823,0.68055725,11.727066,-0.071746826,-0.028320312,0.39360046,56.100464,-48.750305,-249.74976,12.048498854564285,0.4010872339342942,260.57397590447505,44.434937499999315,26.047614020644207
13:03:25:00,2.595581,0.35734558,12.004791,-0.08453369,-0.03578186,0.3030548,56.024932,-49.800110000000004,-250.19989,12.28738147632715,0.3166520141308369,261.18912863552396,44.43493749999931,26.04761409473086
13:03:25:01,2.3992615,-0.17176819,12.229843,-0.048309326,-0.041107178,0.21464539,55.9494,-50.849915,-250.65002,12.464149383777745,0.22382188121349988,261.8042813665728,44.4349374999993,26.04761422067817
13:03:25:02,2.030548,-0.5428772,12.208298,0.024124146,-0.02406311,0.1219635,56.174468,-50.6248475,-250.65002,12.387912693080615,0.12663373569215833,261.8090522760897,44.43493749999929,26.04761434662548
13:03:25:03,1.4918518,-0.87327576,12.0143585,0.12745667,0.012161255,0.041000366,56.399536,-50.39978,-250.65002,12.138082324349636,0.13444005676433599,261.8138231856066,44.434937499999286,26.047614472572786
13:03:25:04,1.2715912,-1.0887451,11.92099,0.25422668,0.05583191,-0.005874634,56.475068,-49.7245785,-250.19989,12.03795300924503,0.26035152836636943,261.2705897824219,44.43493749999928,26.047614598520095
13:03:25:05,0.88612366,-1.4694366,11.415817,0.40016174,0.12826538,-0.010131836,56.5506,-49.049377,-249.74976,11.544060673771614,0.42033805438849203,260.72735637923716,44.43493749999927,26.047614724467405
13:03:25:06,0.6538849,-1.6418152,10.661636,0.5386505,0.19218445,0.014373779,56.999970000000005,-48.82431,-249.824525,10.807108994078622,0.572089004871439,260.85502678130945,44.434937499999265,26.04761485041471
13:03:25:07,0.5557251,-1.660965,9.869156,0.64837646,0.23373413,0.04206848,57.44934,-48.599243,-249.89929,10.02336646393471,0.6905023058748602,260.9826971833818,44.43493749999926,26.04761497636202
13:03:25:08,0.48150635,-1.6226654,8.40152,0.71762085,0.23692322,0.06336975,56.1744685,-49.124908500000004,-249.52469000000002,8.570322612121872,0.7583719547457919,260.44798808762044,44.43493749999925,26.04761510230933
13:03:25:09,0.51023865,-1.546051,7.9226685,0.7346649,0.19004822,0.0750885,54.899597,-49.650574,-249.15009,8.088219416870878,0.7625543417025624,259.9132789918591,44.43493749999924,26.04761522825664
13:03:25:10,0.49586487,-1.4239349,7.0727234,0.6771393,0.10803223,0.0708313,55.7250985,-49.725342,-248.92502000000002,7.231658790460574,0.6893516282587232,259.88901271982496,44.434937499999236,26.04761535420395
13:03:25:11,0.5293884,-1.3114166,6.2730713,0.5471802,0.015350342,0.051651,56.5506,-49.80011,-248.69995,6.430512352191994,0.5498269091928449,259.8647464477908,44.43493749999923,26.047615480151254
13:03:25:12,0.5150299,-1.3305664,6.1389923,0.3575592,-0.05496216,0.032485962,55.875397500000005,-49.575042999999994,-248.77472,6.302609713615643,0.36321447969976506,259.74815648280685,44.43493749999922,26.047615606098564
13:03:25:13,0.5461426,-1.3185883,6.1006775,0.13703918,-0.069869995,0.013305664,55.200195,-49.349976,-248.84949,6.265398056264095,0.15439751860329015,259.63156651782293,44.434937499999215,26.047615732045873
13:03:25:14,0.9459839,-1.3138123,6.7519073,-0.08665466,-0.044311523,-0.0079956055,55.5000305,-49.0501405,-248.77472,6.94328744086573,0.09765485588339556,259.5673559018023,44.43493749999921,26.04761585799318
13:03:25:15,1.0058289,-1.3377533,7.0607605,-0.28160095,0.013214111,-0.047409058,55.799866,-48.750305,-248.69995,7.256418848584772,0.2858694222033378,259.5031452857816,44.4349374999992,26.04761598394049
13:03:25:16,0.89331055,-1.3401489,7.6569214,-0.42541504,0.11228943,-0.090026855,56.099700999999996,-48.674774,-247.875215,7.824477499404703,0.4491009986285018,258.7639109573121,44.434937499999194,26.047616109887798
13:03:25:17,0.5174103,-1.4861908,8.320114,-0.5074463,0.21348572,-0.11026001,56.399536,-48.599243,-247.05048,8.467630925208463,0.5614580748665109,258.0246766288425,44.434937499999194,26.047616235835108
13:03:25:18,0.4407959,-1.4885864,8.638535,-0.5266113,0.27633667,-0.103881836,56.25,-48.674774,-247.50061,8.776928702111391,0.6037158705261191,258.43743611731645,44.43493749999919,26.047616361782417
13:03:25:19,0.32348633,-1.5340729,9.021606,-0.48506165,0.30723572,-0.08149719,56.100464,-48.750305,-247.95074,9.156822477663706,0.5799313613890328,258.85019560579036,44.43493749999918,26.047616487729723
13:03:25:20,0.13912964,-1.5244904,9.323273,-0.3902588,0.3050995,-0.050613403,55.575562000000005,-47.8500365,-248.475645,9.448113434381897,0.4979451299500081,259.0747505039263,44.43493749999917,26.047616613677032
13:03:25:21,0.1151886,-1.4622498,9.340042,-0.2698822,0.24971008,-0.0079956055,55.05066,-46.949768,-249.00055,9.454513602133853,0.3677709282117852,259.2993054020622,44.434937499999165,26.047616739624342
13:03:25:22,0.17025757,-1.3569031,9.081467,-0.13885498,0.18365479,0.0473938,55.1254275,-46.649933000000004,-248.775485,9.18385629978066,0.2350658623432686,259.0450780402061,44.43493749999916,26.047616865571648
13:03:25:23,0.4360199,-1.1031189,8.4517975,-0.024871826,0.12187195,0.099594116,55.200195,-46.350098,-248.55042,8.534627445983771,0.15934355295147098,258.79085067834995,44.43493749999915,26.047616991518957
13:03:25:24,0.56051636,-0.97862244,8.231522,0.053955078,0.026000977,0.13261414,55.200195,-46.350098,-248.55042,8.308419519161463,0.1455118942728745,258.79085067834995,44.434937499999144,26.047617117466267
13:03:25:25,0.6921997,-0.6937103,7.822113,0.08911133,-0.08905029,0.14752197,55.200195,-46.350098,-248.55042,7.883262407770984,0.19399359503894426,258.79085067834995,44.43493749999914,26.047617243413576
13:03:25:26,0.78556824,-0.44711304,7.3768005,0.07952881,-0.18492126,0.15498352,55.200195,-46.350098,-248.699955,7.431972359140943,0.2540484117084657,258.93447522945684,44.43493749999913,26.047617369360886
13:03:25:27,0.7759857,-0.344162,6.8787994,-0.032333374,-0.24884033,0.15284729,55.200195,-46.350098,-248.84949,6.930979907220108,0.29381839794178455,259.0780997805637,44.43493749999912,26.04761749530819
13:03:25:28,0.79515076,-0.27711487,6.850067,-0.093048096,-0.23605347,0.15605164,55.875397500000005,-46.649933000000004,-248.02474999999998,6.901628451807059,0.2978780005555222,258.48680677229777,44.434937499999116,26.0476176212555
13:03:25:29,0.9675293,-0.028121948,6.9075317,-0.22727966,-0.17320251,0.1730957,56.5506,-46.949768,-247.20001,6.975019568203568,0.3340917159680941,257.8955137640318,44.43493749999911,26.04761774720281
13:03:25:30,1.0800476,0.12989807,7.1277924,-0.3710785,-0.09011841,0.17521667,55.875397500000005,-46.649933000000004,-246.900175,7.210325985997668,0.42014457324719423,257.4070119016166,44.4349374999991,26.047617873150116
13:03:25:31,1.2955322,0.32621765,7.453415,-0.5021057,-0.04963684,0.1688385,55.200195,-46.350098,-246.60034,7.572200261392547,0.532052994484502,256.9185100392014,44.434937499999094,26.047617999097426
13:03:25:32,1.527771,0.4363556,7.8077545,-0.60650635,-0.028320312,0.13687134,55.650330000000004,-46.15020766666667,-247.30021,7.967780165790382,0.6224032104476128,257.65205872810805,44.43493749999909,26.047618125044735
13:03:25:33,1.5971985,0.5704346,8.123779,-0.7194214,-0.08691406,0.06336975,56.100465,-45.95031733333334,-248.00008,8.298929082846799,0.7274179883799315,258.38560741701474,44.43493749999908,26.047618250992045
13:03:25:34,1.6881866,0.7044983,8.530792,-0.74606323,-0.12953186,0.03567505,56.5506,-45.750427,-248.69995,8.72471798961929,0.7580643476022303,259.1191561059214,44.43493749999907,26.047618376939354
13:03:25:35,1.8390198,0.87449646,9.2323,-0.78759766,-0.292511,-0.05168152,55.34973,-45.44983,-247.50061,9.454210764169824,0.8417504016440894,257.6544810564604,44.434937499999066,26.04761850288666
13:03:25:36,2.006607,0.8816681,9.799728,-0.78227234,-0.33406067,-0.08470154,56.0997,-45.2247625,-246.60034000000002,10.041836443847838,0.854822142932842,256.9144978249719,44.43493749999906,26.04761862883397
13:03:25:37,1.9012604,0.8673096,10.257019,-0.73646545,-0.38838196,-0.18910217,56.84967,-44.999695,-245.70007,10.467734034509155,0.8538041558787665,256.17451459348337,44.43493749999905,26.04761875478128
13:03:25:38,1.8222504,0.8385773,10.486862,-0.7194214,-0.39691162,-0.21998596,56.700135,-44.6250925,-245.70007,10.67698848062596,0.8505879187162877,256.0761246091031,44.434937499999045,26.047618880728585
13:03:25:39,1.4894562,0.80267334,10.766983,-0.6736145,-0.38093567,-0.26472473,56.5506,-44.25049,-245.70007,10.899114055039252,0.8178922068110026,255.97773462472279,44.43493749999904,26.047619006675895
13:03:25:40,1.0824432,0.72605896,10.908249,-0.58413696,-0.22966003,-0.26260376,56.50024533333333,-44.05009066666667,-245.55002666666667,10.98584275968956,0.680382577807354,255.78811996651874,44.43493749999903,26.047619132623204
13:03:25:41,1.0273895,0.77633667,10.958527,-0.5266113,-0.13697815,-0.23384094,56.44989066666667,-43.84969133333333,-245.39998333333335,11.033926854009227,0.5922533749040153,255.59850530831469,44.43493749999902,26.047619258570514
13:03:25:42,1.0896301,0.9199829,10.93457,-0.45843506,-0.058151245,-0.20187378,56.399536,-43.649292,-245.24994,11.02717023429032,0.5042789848722055,255.40889065011064,44.434937499999016,26.047619384517823
13:03:25:43,1.3122864,1.1378479,10.855576,-0.3870697,-0.00062561035,-0.19335938,57.899475,-43.35022,-246.29974,10.993649245402336,0.4326790887948994,256.70051169289013,44.43493749999901,26.04761951046513
13:03:25:44,1.6235352,1.283905,10.968094,-0.31889343,-0.009155273,-0.21040344,57.749939,-43.050385,-245.84961,11.161691833566275,0.3821602363992138,256.18444604544396,44.434937499999,26.04761963641244
13:03:25:45,1.8294373,1.3964233,11.178787,-0.24111938,-0.06135559,-0.2583313,57.600403,-42.75055,-245.39948,11.413243082436438,0.35866157362550355,255.66838039799782,44.434937499998995,26.047619762359748
13:03:25:46,1.8222504,1.4299469,11.2673645,-0.14524841,-0.10395813,-0.32118225,56.700134500000004,-42.3751835,-244.42444,11.502992977176852,0.36750840958498826,254.46872343738085,44.43493749999899,26.047619888307054
13:03:25:47,1.6403046,1.4586792,11.145264,-0.05256653,-0.13272095,-0.37445068,55.799866,-41.999817,-243.4494,11.359368548426879,0.40073857113785016,253.2690664767639,44.43493749999898,26.047620014254363
13:03:25:48,1.5636902,1.4802246,11.051895,-0.018478394,-0.14337158,-0.39363098,56.34969066666667,-42.549642,-243.89953333333332,11.25968805069866,0.4193354378206975,253.91636127098755,44.43493749999897,26.047620140201673
13:03:25:49,1.2524414,1.5185394,10.8364105,0.013473511,-0.1721344,-0.43623352,56.89951533333333,-43.099467000000004,-244.34966666666668,11.013735238069625,0.4691603895616269,254.5636560652112,44.434937499998966,26.047620266148982
13:03:25:50,1.0297699,1.4443054,10.884293,-0.0014343262,-0.16041565,-0.43836975,57.44934,-43.649292,-244.7998,11.027886390658193,0.4668011094370203,255.21095085943486,44.434937499998966,26.04762039209629
13:03:25:51,1.1040039,1.3222046,11.114136,-0.0110321045,-0.14657593,-0.42771912,57.149505000000005,-43.574524,-244.34967,11.246824824899354,0.4522718830511557,254.6990426974789,44.43493749999896,26.047620518043598
13:03:25:52,1.1901855,1.259964,11.260193,-0.029129028,-0.13378906,-0.4074707,56.84967,-43.499756,-243.89954,11.392804624101794,0.4298608893658487,254.18713453552294,44.43493749999895,26.047620643990907
13:03:25:53,1.4918518,1.0372925,11.76297,-0.013153076,-0.12632751,-0.39682007,57.4501035,-41.849518,-244.42444,11.902481285203496,0.41665070640269747,254.5553518592052,44.434937499998945,26.047620769938217
13:03:25:54,1.4870758,0.91519165,12.122101,0.022003174,-0.13804626,-0.4021454,58.050537,-40.19928,-244.94934,12.247216126343831,0.42574855526146166,254.9235691828874,44.43493749999894,26.047620895885522
13:03:25:55,1.4128418,0.77394104,12.325607,0.06674194,-0.1210022,-0.3946991,58.050537,-40.19928,-244.94934,12.43043420817119,0.4181906245967425,254.9235691828874,44.43493749999893,26.047621021832832
13:03:25:56,1.1542816,0.63746643,12.500381,0.096572876,-0.0741272,-0.35954285,58.050537,-40.19928,-244.94934,12.569735661764593,0.379594814433593,254.9235691828874,44.434937499998924,26.04762114778014
13:03:25:57,0.96273804,0.5656433,12.780502,0.12745667,0.004699707,-0.30308533,56.5506,-39.450073,-244.94934,12.829187357292042,0.3288282336335851,254.46897214886718,44.43493749999892,26.04762127372745
13:03:25:58,0.859787,0.47465515,12.933731,0.14875793,0.04411316,-0.27005005,57.3753365,-39.150238,-244.725035,12.970964836015535,0.31145131582331287,254.39305763077877,44.43493749999891,26.04762139967476
13:03:25:59,0.9316101,0.44831848,12.878662,0.22120667,0.1293335,-0.16352844,58.200073,-38.850403,-244.50073,12.920093720564704,0.3039754854648192,254.31714311269036,44.4349374999989,26.047621525622066
13:03:25:60,1.2021637,0.5273285,12.572205,0.259552,0.11975098,-0.09109497,58.125305,-39.3005365,-243.975065,12.640554239056724,0.3000097189663383,253.86452146774167,44.434937499998895,26.047621651569376
13:03:25:61,1.7049408,0.7787323,12.162796,0.25422668,0.017486572,-0.07298279,58.050537,-39.75067,-243.4494,12.306374513404991,0.2650725799857799,253.41189982279298,44.43493749999889,26.047621777516685
13:03:25:62,2.2364502,1.0420837,11.885071,0.19456482,-0.13165283,-0.12730408,57.825469999999996,-39.974975,-242.9245,12.138474393840715,0.2671970539008387,252.89168069982676,44.43493749999888,26.04762190346399
13:03:25:63,2.6362915,1.0444794,11.801285,0.096572876,-0.25842285,-0.22851562,57.600403,-40.19928,-242.3996,12.137186566137212,0.3582290864307619,252.37146157686055,44.434937499998874,26.0476220294113
13:03:25:64,2.8733063,0.8313904,11.937744,-0.034454346,-0.35855103,-0.36698914,57.0755015,-39.44931,-242.3996,12.306779875351955,0.5142246318004304,252.1352994230187,44.43493749999887,26.04762215535861
13:03:25:65,2.6961365,0.26875305,12.280121,-0.16015625,-0.3905182,-0.5108032,56.5506,-38.69934,-242.3996,12.575482177759927,0.6626268920558103,251.89913726917683,44.43493749999886,26.04762228130592
13:03:25:66,2.2795563,-0.506958,12.770935,-0.23260498,-0.33831787,-0.61946106,56.25,-38.6245725,-241.94946499999998,12.982687091386694,0.7431662416569128,251.38715193435837,44.43493749999885,26.04762240725323
13:03:25:67,1.6786041,-1.1031189,13.046265,-0.24005127,-0.24031067,-0.6791229,55.9494,-38.549805,-241.49933,13.199985359169872,0.7593297989996651,250.87516659953994,44.434937499998846,26.047622533200535
13:03:25:68,1.1829987,-1.5604095,13.139633,-0.21556091,-0.18385315,-0.69189453,55.849709999999995,-38.04982533333333,-241.59953,13.284740084268902,0.7476540157913094,250.87417588274303,44.43493749999884,26.047622659147844
13:03:25:69,0.82388306,-1.9291229,12.9888,-0.118621826,-0.038986206,-0.6791229,55.75002,-37.54984566666667,-241.69973,13.157097852484771,0.690506317977076,250.87318516594615,44.43493749999883,26.047622785095154
13:03:25:70,0.562912,-2.1805115,12.418976,0.0912323,0.18685913,-0.5853729,55.65033,-37.049866,-241.79993,12.62150804024433,0.6212093842514429,250.87219444914925,44.434937499998824,26.04762291104246
13:03:25:71,0.5198059,-2.305008,11.928177,0.22439575,0.2869873,-0.49482727,56.25,-36.3746645,-241.950225,12.159961619884653,0.6144665899094965,251.05357055319604,44.43493749999882,26.04762303698977
13:03:25:72,0.641922,-2.3576813,11.221878,0.3660736,0.3562317,-0.39682007,56.84967,-35.699463,-242.10052,11.48482785301276,0.6468207422900528,251.23494665724286,44.43493749999881,26.04762316293708
13:03:25:73,0.8478241,-2.3193665,10.453339,0.48538208,0.34344482,-0.31159973,58.34961,-34.950256,-242.10052,10.741068983801568,0.6713006030877908,251.47337665424553,44.4349374999988,26.047623288884388
13:03:25:74,1.0010529,-2.135025,9.770996,0.5652771,0.24757385,-0.2593994,57.34965,-35.300190666666666,-242.20021333333332,10.051507423826509,0.6694169550501335,251.3926823872858,44.434937499998796,26.047623414831698
13:03:25:75,1.0992126,-2.0488281,9.383133,0.5897827,0.18153381,-0.23916626,56.34969,-35.650125333333335,-242.29990666666666,9.666910045047352,0.6618146699150705,251.31198812032605,44.43493749999879,26.047623540779004
13:03:25:76,1.4032745,-1.921936,8.583466,0.5844574,-0.0016937256,-0.21359253,55.34973,-36.00006,-242.3996,8.90723895961045,0.6222660925946142,251.2312938533663,44.43493749999878,26.047623666726313
13:03:25:77,1.5852356,-1.8788452,8.288986,0.5322571,-0.04324341,-0.19761658,54.299927,-32.400513,-240.60059,8.645826744809684,0.5694031310940734,248.7708166630817,44.434937499998775,26.047623792673622
13:03:25:78,1.7480316,-1.8333435,8.06633,0.45236206,-0.010223389,-0.19229126,54.000091499999996,-33.3755495,-240.525055,8.454729004083504,0.49164202391829415,248.76351323875446,44.43493749999877,26.04762391862093
13:03:25:79,1.9084473,-1.795044,7.996887,0.36288452,0.06222534,-0.19761658,53.700256,-34.350586,-240.44952,8.415138486655005,0.4178629924803612,248.75620981442722,44.43493749999876,26.047624044568238
13:03:25:80,1.9347839,-1.7160339,7.9035187,0.27766418,0.1570282,-0.19975281,54.00034566666667,-34.550476,-240.34983,8.315874513657485,0.3763727375265224,248.75307712906792,44.43493749999875,26.047624170515547
13:03:25:81,1.9012604,-1.5891418,7.81015,0.2041626,0.2539673,-0.20082092,54.30043533333333,-34.750366,-240.25014000000002,8.193815093814077,0.3827672904229101,248.7499444437086,44.434937499998746,26.047624296462857
13:03:25:82,1.8366241,-1.4215393,7.7215576,0.1381073,0.314682,-0.20507812,54.600525,-34.950256,-240.15045,8.063275626956024,0.4001942312677988,248.7468117583493,44.43493749999874,26.047624422410166
13:03:25:83,1.7839508,-1.1605835,7.7239532,0.09336853,0.34025574,-0.21466064,54.299927,-31.64978,-240.60059,8.011796774324916,0.4130022292464268,248.67415337063446,44.43493749999873,26.047624548357472
13:03:25:84,1.6019897,-0.8996124,7.7215576,0.06781006,0.3572998,-0.2263794,54.000091499999996,-32.624817,-240.525055,7.937135833489156,0.42837948604199483,248.66390338767988,44.43493749999873,26.04762467430478
13:03:25:85,1.4296112,-0.7008972,7.644943,0.057144165,0.37008667,-0.23916626,53.700256,-33.599854,-240.44952,7.80898191452524,0.4443310689425439,248.6536534047253,44.434937499998725,26.04762480025209
13:03:25:86,1.1901855,-0.53808594,7.6425476,0.051818848,0.36369324,-0.23703003,53.149922333333336,-33.05002866666667,-240.09958666666668,7.75336132406466,0.4371969818646345,248.12481956205826,44.43493749999872,26.047624926199397
13:03:25:87,0.95555115,-0.32260132,7.858032,0.05821228,0.328537,-0.22424316,52.59958866666667,-32.50020333333333,-239.74965333333333,7.922488026179406,0.40200774211274093,247.59598571939125,44.43493749999871,26.047625052146707
13:03:25:88,0.6754303,-0.19810486,8.116608,0.09976196,0.27954102,-0.20826721,52.049255,-31.950378,-239.39972,8.14707168566582,0.362589108064302,247.0671518767242,44.4349374999987,26.047625178094016
13:03:25:89,0.49346924,-0.21965027,8.071106,0.18179321,0.24864197,-0.15501404,51.824951,-31.800079,-239.39972,8.089160042623291,0.3448201749386289,247.00073886128808,44.434937499998696,26.047625304041325
13:03:25:90,0.39770508,-0.1598053,7.683258,0.26487732,0.2273407,-0.09428406,51.600647,-31.64978,-239.39972,7.695203737337296,0.3615705636483092,246.934325845852,44.43493749999869,26.047625429988635
13:03:25:91,0.30673218,0.11791992,7.0847015,0.31175232,0.19857788,-0.036758423,52.2003175,-31.275177,-240.525055,7.092318738035017,0.37144833437791014,248.10423123877825,44.43493749999868,26.04762555593594
13:03:25:92,0.37376404,0.4172058,6.5938873,0.30749512,0.15383911,0.017562866,52.799988,-30.900574,-241.65039,6.617636282106478,0.34427921060026334,249.27413663170455,44.434937499998675,26.04762568188325
13:03:25:93,0.6610718,0.6135254,6.182083,0.24783325,0.08885193,0.060180664,52.2750855,-31.349944999999998,-240.07492,6.247525875103632,0.27006980132878294,247.6932197152275,44.43493749999867,26.04762580783056
13:03:25:94,0.8813324,0.81703186,6.0288544,0.14131165,0.02067566,0.06869507,51.750183,-31.799316,-238.49945,6.147468847903516,0.15847863573511414,246.11230279875048,44.43493749999866,26.047625933777866
13:03:25:95,0.99386597,0.91519165,6.1988525,0.020935059,-0.013412476,0.058044434,51.97525,-30.824279500000003,-238.874815,6.344376851930378,0.06314528902589973,246.4017016156335,44.434937499998654,26.047626059725175
13:03:25:96,0.9579468,0.90322876,6.5029144,-0.08453369,-0.0059509277,0.050582886,52.200317,-29.849243,-239.25018,6.634860959978644,0.09869137065415458,246.6911004325165,44.43493749999865,26.047626185672485
13:03:25:97,0.82865906,0.8553467,6.785431,-0.18040466,0.023864746,0.055908203,51.374816499999994,-30.5244445,-239.700315,6.8891485446811185,0.19037093952084524,247.03961827713545,44.43493749999864,26.047626311619794
13:03:25:98,0.6921997,0.85772705,7.2546844,-0.26776123,0.051574707,0.08041382,50.549316,-31.199646,-240.15045,7.337934441011664,0.28429282287852636,247.38813612175437,44.43493749999863,26.047626437567104
13:03:25:99,0.52459717,0.9199829,7.8795776,-0.30397034,0.052627563,0.09638977,50.999450499999995,-30.899811,-239.175415,7.9504285344556225,0.3232005812923106,246.49760970363397,44.434937499998625,26.04762656351441
13:03:26:00,0.5557251,0.91519165,8.518829,-0.3433838,0.023864746,0.17521667,51.449585,-30.599976,-238.20038,8.585851948073687,0.38624194703575815,245.60708328551357,44.43493749999862,26.04762668946172
13:03:26:01,0.74964905,0.9582825,8.949783,-0.31249237500000004,-0.018211365,0.230613705,51.525116,-30.000305500000003,-238.275145,9.0321035642347,0.396059275840716,245.62221256276587,44.43493749999861,26.047626869386445
13:03:26:02,1.0106201,1.1546173,9.33046,-0.28160095,-0.060287476,0.28601074,51.600647,-29.400635,-238.34991,9.455790707687184,0.4058766046456739,245.63734184001817,44.4349374999986,26.04762704931117
13:03:26:03,1.2093353,1.3724823,9.48848,-0.24858093,-0.10183716,0.3169098,50.5500785,-29.1000365,-238.275145,9.663200931473968,0.4154456730459116,245.3125790863954,44.43493749999859,26.0476272292359
13:03:26:04,1.3841248,1.4802246,9.608185,-0.2144928,-0.12313843,0.3307495,49.49951,-28.799438,-238.20038,9.819576636629769,0.41299572146083413,244.98781633277264,44.434937499998576,26.047627409160626
13:03:26:05,1.4104614,1.6238708,9.701569,-0.1953125,-0.10609436,0.3254242,49.64981,-29.1000365,-238.12484999999998,9.937142385904691,0.3940861527961869,244.98056769190129,44.43493749999857,26.04762758908535
13:03:26:06,1.2787781,1.7459869,9.929016,-0.18786621,-0.06561279,0.31158447,49.80011,-29.400635,-238.04932,10.162140641236334,0.3697074965652294,244.97331905102996,44.43493749999856,26.047627769010077
13:03:26:07,1.1040039,1.7794952,10.259415,-0.17507935,-0.007019043,0.31263733,49.95040899999999,-28.650665500000002,-238.424685,10.470960983609062,0.358391051605069,245.28119692375208,44.43493749999855,26.047627948934807
13:03:26:08,0.8957062,1.6526031,10.508408,-0.13352966,0.049438477,0.3264923,50.100708,-27.900696,-238.80005,10.675206100929014,0.3561903354487389,245.58907479647416,44.43493749999854,26.047628128859532
13:03:26:09,0.77838135,1.5616302,10.625732,-0.07600403,0.078201294,0.36164856,49.4255065,-27.825165,-237.22534000000002,10.76804285575628,0.3777323601567503,243.91209789641988,44.434937499998526,26.047628308784258
13:03:26:10,0.883728,1.5879669,10.630508,-0.0067596436,0.08566284,0.401062,48.750305,-27.749634,-235.65063,10.7847259766553,0.4101640437464803,242.2351209963656,44.43493749999852,26.047628488708984
13:03:26:11,1.2189178,1.5592346,10.5155945,0.047561646,0.06755066,0.44047546,48.5252375,-26.8501285,-236.47537,10.700219662671616,0.44815603610670746,242.89367008266692,44.434937499998505,26.047628668633713
13:03:26:12,1.6235352,1.5472565,10.336029,0.07418823,0.037719727,0.45005798,48.30017,-25.950623,-237.30011,10.576547863611845,0.4576886022583126,243.5522191689682,44.4349374999985,26.04762884855844
13:03:26:13,1.9491577,1.4730377,10.34082,0.08804321,0.0025634766,0.42129517,48.000335,-26.100158999999998,-236.47537,10.625517120474212,0.43040422686668833,242.7054315118396,44.43493749999849,26.047629028483165
13:03:26:14,1.9946442,1.3246002,10.355179,0.08804321,-0.038986206,0.36164856,47.7005,-26.249695,-235.65063,10.628400787346829,0.3742475277613095,241.85864385471098,44.434937499998476,26.04762920840789
13:03:26:15,1.8533783,1.1139069,10.496445,0.06993103,-0.07626343,0.31051636,48.0751035,-26.0246275,-235.800165,10.71686322310794,0.32730241297594403,242.05451783500865,44.43493749999847,26.047629388332616
13:03:26:16,1.6043854,0.9559021,10.632904,0.027328491,-0.10928345,0.27642822,48.449707,-25.79956,-235.9497,10.795668057592987,0.29850004970955696,242.25039181530636,44.434937499998455,26.047629568257346
13:03:26:17,1.5612946,0.8481598,11.085419,-0.028076172,-0.12420654,0.2711029,48.9746085,-25.650024000000002,-235.199735,11.226910985657907,0.29952014690393564,241.61084965067266,44.43493749999845,26.04762974818207
13:03:26:18,1.7360687,0.73083496,11.667206,-0.07707214,-0.091171265,0.2796173,49.49951,-25.500488,-234.44977,11.818280336678171,0.30403642674056314,240.971307486039,44.43493749999844,26.047629928106797
13:03:26:19,1.9323883,0.73083496,12.409409,-0.10797119,-0.042175293,0.27642822,48.600004999999996,-25.500488,-234.825135,12.580209696583603,0.2997483845194505,241.1555420631159,44.434937499998426,26.047630108031523
13:03:26:20,2.006607,0.61831665,13.098938,-0.093048096,0.054763794,0.26045227,47.7005,-25.500488,-235.2005,13.266158594708577,0.2819439771491006,241.3397766401928,44.43493749999842,26.047630287956252
13:03:26:21,1.8390198,0.5057831,13.453278,-0.02168274,0.1847229,0.2561798,47.7005,-24.150085500000003,-234.825135,13.587807009018109,0.3165766588464121,240.83837201923797,44.434937499998405,26.04763046788098
13:03:26:22,1.5684662,0.6063385,13.338364,0.094436646,0.2859192,0.28068542,47.7005,-22.799683,-234.44977,13.443946102005196,0.411645932856072,240.3369673982831,44.4349374999984,26.047630647805704
13:03:26:23,1.3960876,0.97984314,12.802048,0.18605042,0.27101135,0.3307495,47.325134,-23.02475,-235.05020000000002,12.915168839786137,0.4663230021790142,240.87065240913637,44.434937499998384,26.04763082773043
13:03:26:24,1.3577881,1.4682617,12.225052,0.212677,0.1804657,0.3808136,46.949768,-23.249817,-235.65063,12.387545251053272,0.4720364108312515,241.40433741998964,44.43493749999838,26.047631007655156
13:03:26:25,1.5397491,1.7052765,11.727066,0.14770508,0.056900024,0.41490173,47.024536,-23.324585,-235.57510000000002,11.95001557324337,0.4440696442518897,241.35240868933337,44.43493749999837,26.047631187579885
13:03:26:26,1.8414154,1.7962646,11.796494,0.015609741,-0.06561279,0.4287567,47.099304,-23.399353,-235.49957,12.073717235408749,0.4340288124313421,241.3004799586771,44.434937499998355,26.04763136750461
13:03:26:27,2.1071625,1.532898,12.4142,-0.11222839,-0.1444397,0.401062,46.799469,-22.200012,-235.350035,12.684725922139991,0.44080468044484516,240.98572866081003,44.43493749999835,26.047631547429337
13:03:26:28,2.0880127,0.86491394,13.364685,-0.18147278,-0.14125061,0.354187,46.499634,-21.000671,-235.2005,13.554433898477376,0.42229437087806476,240.67097736294295,44.434937499998334,26.047631727354062
13:03:26:29,2.0185852,0.5656433,13.647202,-0.17826843,-0.09863281,0.30519104,45.7496645,-21.750640500000003,-235.2005,13.807272032566678,0.3669463656168877,240.59616928897003,44.43493749999833,26.04763190727879
13:03:26:30,1.8629608,-0.030517578,14.114075,-0.08985901,-0.028320312,0.26257324,44.999695,-22.50061,-235.2005,14.23652581813866,0.2789648510369273,240.52136121499714,44.43493749999832,26.047632087203517
13:03:26:31,1.7432556,-0.641037,14.092529,0.07846069,0.043045044,0.23062134,45.375061,-21.900177,-235.425565,14.214402630365491,0.2473765513374977,240.75756862182112,44.434937499998306,26.047632267128243
13:03:26:32,1.6043854,-1.1294556,13.649597,0.29577637,0.10270691,0.20611572,45.750427,-21.299744,-235.65063,13.789895602451583,0.37485471911561075,240.99377602864513,44.4349374999983,26.04763244705297
13:03:26:33,1.5014343,-1.4311218,12.876282,0.5109558,0.12187195,0.19865417,45.0004585,-20.175171,-235.800165,13.042279429117277,0.5615977929166311,240.90587031992936,44.434937499998284,26.0476326269777
13:03:26:34,1.4272156,-1.5771637,11.796494,0.69844055,0.10696411,0.19120789,44.25049,-19.050598,-235.9497,11.986728511045749,0.7319979370945294,240.81796461121357,44.43493749999828,26.047632806902424
13:03:26:35,1.4367981,-1.6968842,10.699951,0.8369293,0.07499695,0.17202759,43.949891,-19.5755005,-236.39983999999998,10.928529460580425,0.8577113077422965,241.24689018105792,44.43493749999827,26.04763298682715
13:03:26:36,1.4320068,-1.7711029,9.507629,0.9285431,0.054763794,0.14219666,43.649292,-20.100403,-236.84998,9.776628158996107,0.9409629385932476,241.67581575090227,44.434937499998256,26.047633166751876
13:03:26:37,1.4463654,-1.8141937,8.233917,0.9434509,0.035583496,0.10491943,43.649292,-19.7250365,-237.44965,8.554569586737012,0.9499336148857545,242.23307785110603,44.43493749999825,26.0476333466766
13:03:26:38,1.4080658,-1.7279968,7.149338,0.86994934,-0.0027618408,0.062301636,43.649292,-19.34967,-238.04932,7.488768662215697,0.8721817332295584,242.79033995130976,44.434937499998235,26.04763352660133
13:03:26:39,1.3290558,-1.6202698,6.371231,0.7090912,-0.058151245,0.005844116,43.199921,-19.574737499999998,-238.49945,6.707029744951686,0.71149564362989,243.17010950090872,44.43493749999823,26.047633706526057
13:03:26:40,1.2811737,-1.52211,5.9857635,0.48538208,-0.095443726,-0.05593872,42.75055,-19.799805,-238.94958,6.307740449606653,0.49782969860498266,243.54987905050768,44.43493749999821,26.047633886450782
13:03:26:41,0.9771118,-1.447876,5.8995667,0.23397827,-0.09863281,-0.12197876,42.75055,-18.8995365,-238.57497999999998,6.15272131896319,0.281696787223118,243.11228353564366,44.434937499998206,26.047634066375508
13:03:26:42,0.6347351,-1.4933777,6.1054688,-0.025939941,-0.051757812,-0.16139221,42.75055,-17.999268,-238.20038,6.317421536497524,0.17146194064804857,242.67468802077963,44.4349374999982,26.047634246300237
13:03:26:43,0.3378601,-1.5604095,6.627411,-0.26455688,0.0068206787,-0.17098999,41.250609999999995,-18.149567,-238.349915,6.817008421425285,0.31507846815271773,242.5777957080074,44.434937499998185,26.047634426224963
13:03:26:44,0.12716675,-1.629837,7.3217316,-0.45310974,0.08885193,-0.15713501,39.75067,-18.299866,-238.49945,7.502019304914719,0.48774431141253977,242.48090339523515,44.43493749999818,26.04763460614969
13:03:26:45,-0.13859558,-1.6537781,7.917877,-0.5500488,0.16555786,-0.1251831,40.425110000000004,-18.450165,-238.80005,8.08992997039926,0.5879063666221259,242.90009075433215,44.43493749999816,26.047634786074415
13:03:26:46,-0.23196411,-1.7016754,8.585861,-0.5734863,0.20603943,-0.07723999,41.09955,-18.600464,-239.10065,8.755941732710093,0.6142514135576856,243.3192781134292,44.434937499998156,26.047634965999144
13:03:26:47,-0.14099121,-1.7303925,9.13414,-0.4967804,0.25289917,-0.018661499,40.799714,-18.299866,-238.80005,9.29766907697588,0.5577607081498086,242.95081909142817,44.43493749999815,26.04763514592387
13:03:26:48,0.007446289,-1.6418152,9.189209,-0.35403442,0.23373413,0.036743164,40.499878,-17.999268,-238.49945,9.334729489591647,0.4258192975574548,242.58236006942715,44.434937499998135,26.047635325848596
13:03:26:49,0.07688904,-1.3497162,8.784592,-0.21128845,0.14956665,0.08680725,40.274811,-17.8497315,-238.724515,8.88800890815702,0.27303569464117233,242.75535240632277,44.43493749999813,26.04763550577332
13:03:26:50,0.15829468,-1.1581879,8.248276,-0.106903076,0.02067566,0.12728882,40.049744,-17.700195,-238.94958,8.330697053044164,0.16750580369554297,242.9283447432184,44.434937499998114,26.047635685698047
13:03:26:51,0.2301178,-0.99298096,7.896332,-0.04724121,-0.107162476,0.1581726,39.99989866666667,-17.250060666666666,-239.74965333333333,7.961848054504894,0.19680980558771627,243.67606577574225,44.43493749999811,26.047635865622777
13:03:26:52,0.22053528,-0.93074036,7.6616974,-0.022750854,-0.20942688,0.18374634,39.95005333333333,-16.799926333333335,-240.54972666666666,7.721173516805873,0.27953521582737895,244.42378680826607,44.43493749999809,26.047636045547502
13:03:26:53,0.28756714,-0.89482117,7.49411,-0.023803711,-0.24990845,0.21569824,39.900208,-16.349792,-241.3498,7.55281963761799,0.33097821798098986,245.17150784078993,44.434937499998085,26.04763622547223
13:03:26:54,0.428833,-0.8134155,7.1708984,-0.036590576,-0.20515442,0.25405884,37.8006,-16.949463,-238.94958,7.229614538870783,0.3285926056375794,242.51406441384955,44.43493749999808,26.047636405396954
13:03:26:55,0.62275696,-0.6338501,6.8955536,-0.07493591,-0.13911438,0.2753601,38.4750375,-16.2750245,-239.550015,6.952571584023527,0.31747659126669875,243.16714080289142,44.434937499998064,26.047636585321683
13:03:26:56,0.9292145,-0.2866974,6.6609344,-0.1441803,-0.11354065,0.2785492,39.149475,-15.600586,-240.15045,6.731543810098867,0.3335702248869831,243.8202171919333,44.43493749999806,26.04763676524641
13:03:26:57,1.0848389,-0.15022278,6.7279663,-0.2613678,-0.1444397,0.24020386,38.44960533333334,-15.300496333333333,-240.60007666666667,6.816522049881438,0.3832412401762493,244.13569842307453,44.43493749999804,26.047636945171135
13:03:26:58,1.0848389,-0.14543152,6.790207,-0.309303285,-0.166809085,0.21463776,37.749735666666666,-15.000406666666667,-241.04970333333333,6.877858450768794,0.4147551786608664,244.45117965421574,44.434937499998036,26.04763712509586
13:03:26:59,1.0632935,-0.09515381,6.967392,-0.35723877,-0.18917847,0.18907166,37.049866,-14.700317,-241.49933,7.048701908604433,0.4462691171454836,244.76666088535697,44.43493749999803,26.047637305020586
13:03:26:60,1.0872345,-0.06404114,7.4055176,-0.40411377,-0.23072815,0.16777039,36.59973,-15.600586,-239.10065,7.485176754727473,0.49466182596475694,242.38819969222675,44.434937499998014,26.047637484945316
13:03:26:61,1.1423035,-0.032913208,7.8987274,-0.4179535,-0.26374817,0.1539154,36.3746635,-15.000152499999999,-238.72528,7.980967053238841,0.5176274487483821,241.94676531105193,44.43493749999801,26.04763766487004
13:03:26:62,1.3482056,0.07962036,8.344055,-0.39665222,-0.2669525,0.14007568,36.149597,-14.399719,-238.34991,8.45264760797603,0.49821462946669964,241.50533092987715,44.43493749999799,26.047637844794767
13:03:26:63,1.4200287,0.2879181,8.552353,-0.36149597,-0.24563599,0.11024475,35.849762,-14.324950999999999,-238.42468,8.67422158915371,0.45074414118442346,241.53020132689153,44.434937499997986,26.047638024719493
13:03:26:64,1.3649597,0.63027954,8.607407,-0.34658813,-0.24137878,0.0750885,35.549927,-14.250183,-238.49945,8.737724105556076,0.428981736351835,241.55507172390588,44.43493749999797,26.047638204644223
13:03:26:65,1.3577881,0.7643585,8.652908,-0.36470032,-0.23712158,0.051651,36.1495975,-13.7252805,-239.099885,8.792078781351305,0.4380648272924897,242.2075590090119,44.434937499997964,26.04763838456895
13:03:26:66,1.369751,1.0013885,9.239487,-0.40304565,-0.24456787,0.02609253,36.749268,-13.200378,-239.70032,9.393993653026506,0.4721652879469861,242.86004629411795,44.43493749999796,26.047638564493674
13:03:26:67,1.369751,1.0325165,9.464539,-0.4222107,-0.22219849,0.011169434,36.374663999999996,-12.599945,-239.849855,9.618721672202302,0.47724082014078645,242.9204546721526,44.43493749999794,26.0476387444184
13:03:26:68,1.3793335,1.0492706,9.852402,-0.41583252,-0.1913147,-0.009063721,36.00006,-11.999512,-239.99939,10.003667070922074,0.4578210896889812,242.98086305018725,44.434937499997936,26.04763892434313
13:03:26:69,1.4511566,1.149826,10.127731,-0.39665222,-0.16362,-0.03036499,35.8497615,-12.449646,-239.39972,10.295576259557334,0.4301470918751265,242.38948017988997,44.43493749999792,26.047639104267855
13:03:26:70,1.6786041,1.2312317,10.47728,-0.3710785,-0.116744995,-0.066589355,35.699463,-12.89978,-238.80005,10.682089656149762,0.3946679480514171,241.79809730959272,44.434937499997915,26.04763928419258
13:03:26:71,1.7600098,1.362915,10.740646,-0.35298157,-0.081588745,-0.09535217,35.5499265,-12.2245785,-238.80005,10.968894579247129,0.3746261448351527,241.7419628049884,44.43493749999791,26.047639424134037
13:03:26:72,1.5780487,1.5735931,10.941757,-0.31356812,-0.03364563,-0.2306366,35.40039,-11.549377,-238.80005,11.166399562571112,0.39070479336449315,241.68582830038406,44.4349374999979,26.04763956407549
13:03:26:73,1.4439697,1.5544434,11.181183,-0.32315063,-0.08798218,-0.29241943,35.025025,-10.799407500000001,-239.32495,11.380694005982704,0.44460804840721696,242.11692279101123,44.43493749999789,26.047639704016945
13:03:26:74,1.3793335,1.3748779,11.839584,-0.33061218,-0.14125061,-0.33717346,34.64966,-10.049438,-239.84985,11.99869157188344,0.4928915606074992,242.54801728163838,44.434937499997886,26.047639843958397
13:03:26:75,1.3912964,1.1354675,12.344757,-0.30717468,-0.12313843,-0.36273193,34.574890999999994,-9.899902,-239.550015,12.474695086664772,0.49101304465104806,242.23472197905687,44.43493749999788,26.047639983899852
13:03:26:76,1.3793335,0.90800476,12.708679,-0.27201843,-0.06135559,-0.36593628,34.500122,-9.750366,-239.25018,12.81552010155834,0.4600737937593831,241.92142667647536,44.43493749999787,26.047640123841305
13:03:26:77,1.3362274,0.75,13.031891,-0.23579407,0.023864746,-0.36486816,33.824921,-9.525299,-240.07492000000002,13.121668594366792,0.4350829159259129,242.634503078929,44.43493749999786,26.04764026378276
13:03:26:78,1.4128418,0.6853485,13.4053955,-0.20170593,0.07394409,-0.35954285,33.14972,-9.300232,-240.89966,13.49705349436312,0.4188365691164222,243.3475794813826,44.43493749999785,26.047640403724213
13:03:26:79,1.3673553,0.51776123,13.9153595,-0.16229248,0.14105225,-0.36380005,33.2244875,-9.375,-240.67459000000002,13.991960806905137,0.4225932591447897,243.13788954701192,44.434937499997844,26.04764054366567
13:03:26:80,1.0010529,0.4172058,14.298431,-0.09625244,0.23052979,-0.35421753,33.299255,-9.449768,-240.44952,14.339501269218294,0.4334496220354778,242.9281996126412,44.43493749999784,26.04764068360712
13:03:26:81,0.7328949,0.3310089,14.540253,-0.0110321045,0.3008423,-0.31159973,33.299255,-9.449768,-240.44952,14.562474347800041,0.4332691871516619,242.9281996126412,44.43493749999783,26.047640823548576
13:03:26:82,0.7041626,0.24960327,14.430115,0.09762573,0.32321167,-0.2306366,33.299255,-9.449768,-240.44952,14.44944170799891,0.40888850319100656,242.9281996126412,44.43493749999782,26.04764096349003
13:03:26:83,1.0273895,0.24481201,13.979996,0.19776917,0.2539673,-0.14968872,32.474517500000005,-8.7745665,-239.92462,14.019834173946798,0.35499119280204305,242.27338569065364,44.434937499997815,26.047641103431484
13:03:26:84,1.4631348,0.35255432,13.441299,0.2584839,0.115478516,-0.099609375,31.64978,-8.099365,-239.39972,13.525293963493834,0.30011871285320224,241.61857176866604,44.43493749999781,26.047641243372937
13:03:26:85,1.8557739,0.44114685,13.04866,0.26168823,-0.029388428,-0.09642029,31.424713,-8.099365,-239.624785,13.187343747198907,0.28043052926621276,241.8123521357209,44.4349374999978,26.047641383314392
13:03:26:86,2.2292786,0.5081787,12.8164215,0.20628357,-0.17745972,-0.13157654,31.199646,-8.099365,-239.84985,13.01877831185453,0.30225361760084013,242.00613250277573,44.434937499997794,26.047641523255844
13:03:26:87,2.4351807,0.43875122,12.782898,0.16687012,-0.2424469,-0.16566467,30.825043,-8.4747315,-240.75011999999998,13.0201800660785,0.33774386619838603,242.86411880505995,44.43493749999779,26.0476416631973
13:03:26:88,2.499817,0.16819763,12.933731,0.03265381,-0.28825378,-0.29241943,30.45044,-8.850098,-241.65039,13.174170678133315,0.4119048871199872,243.72210510734413,44.43493749999778,26.047641803138752
13:03:26:89,2.3753204,-0.28430176,13.139633,-0.027008057,-0.17852783,-0.3755188,29.7752385,-8.924866,-241.950225,13.35563288908782,0.41667252174923186,243.93981517799068,44.43493749999777,26.047641943080208
13:03:26:90,1.9659119,-0.7918701,13.379059,-0.036590576,-0.04750061,-0.44050598,29.100037,-8.999634,-242.25006,13.545888216699437,0.44456798874654063,244.15752524863723,44.43493749999776,26.04764208302166
13:03:26:91,1.5565033,-1.2324066,13.4053955,0.02305603,0.11442566,-0.46392822,29.349772333333334,-8.899943333333333,-242.35026,13.551610865947069,0.47838708751194875,244.28344117396418,44.43493749999775,26.047642222963116
13:03:26:92,1.3506012,-1.6681519,12.974442,0.13171387,0.26994324,-0.4500885,29.599507666666668,-8.800252666666667,-242.45046,13.150779428394312,0.5411077103537931,244.4093570992911,44.434937499997744,26.04764236290457
13:03:26:93,1.3003235,-1.953064,12.328003,0.25636292,0.3807373,-0.41812134,29.849243,-8.700562,-242.55066,12.549301102482053,0.6208931416319655,244.53527302461805,44.43493749999774,26.047642502846024
13:03:26:94,1.2979279,-2.0847473,11.595383,0.3852539,0.40203857,-0.38084412,29.324340499999998,-8.3251955,-242.40035999999998,11.85258178858702,0.67460938547535,244.31035339890644,44.43493749999773,26.047642642787476
13:03:26:95,1.5253754,-2.2475433,10.6736145,0.5088196,0.34451294,-0.36380005,28.799438,-7.949829,-242.25006,11.01382165694135,0.7140987519605437,244.08543377319484,44.43493749999772,26.047642782728932
13:03:26:96,1.551712,-2.400772,9.62735,0.5610199,0.29763794,-0.36061096,28.424835,-7.949829,-243.52492999999998,10.042777720801551,0.7303231722981103,245.30763218736647,44.434937499997716,26.047642922670384
13:03:26:97,1.630722,-2.3624725,8.712753,0.62068176,0.16661072,-0.3531494,28.050232,-7.949829,-244.7998,9.173472373836923,0.7332935823638278,246.5298306015381,44.43493749999771,26.04764306261184
13:03:26:98,1.6450806,-2.297821,8.288986,0.6068268,0.019607544,-0.34249878,27.825165,-7.949829,-245.324705,8.757485965545897,0.6970858162962723,247.02576929738922,44.4349374999977,26.047643202553292
13:03:26:99,1.7552185,-2.2092438,7.7048035,0.4960327,-0.13272095,-0.33929443,27.600098,-7.949829,-245.84961,8.205214629989452,0.6154543039635172,247.52170799324037,44.434937499997694,26.047643342494748
13:03:27:00,2.0090027,-2.0512238,7.1948395,0.4406433,-0.15829468,-0.34036255,27.149963999999997,-7.8750610000000005,-246.14944500000001,7.746568682781685,0.5788526487748803,247.76788313754543,44.43493749999769,26.0476434824362
13:03:27:01,2.1047668,-2.079956,7.1996155,0.30749512,-0.15722656,-0.35101318,26.69983,-7.800293,-246.44928,7.784004341735589,0.4924263320812164,248.0140582818505,44.43493749999768,26.047643622377656
13:03:27:02,2.274765,-2.0440369,7.271454,0.18817139,-0.09437561,-0.34036255,26.3999945,-8.625030500000001,-247.49984999999998,7.888389311380531,0.400202315360502,249.05484769172557,44.43493749999767,26.047643762319108
13:03:27:03,2.5285492,-1.9458771,7.3815765,0.073135376,0.07499695,-0.33503723,26.100159,-9.449768,-248.55042,8.04162112825998,0.3510317239481879,250.0956371016006,44.43493749999766,26.047643902260564
13:03:27:04,2.6243134,-1.7423706,7.216385,0.027328491,0.19218445,-0.34461975,24.150085,-8.099365,-248.24982,7.873949999675443,0.3955306326091597,249.5531996367565,44.43493749999765,26.047644042202016
13:03:27:05,2.5907898,-1.4143677,6.9075317,0.007080078,0.23052979,-0.35740662,24.04988566666667,-8.549499333333333,-248.94969,7.511765569098401,0.4253629081170038,250.25558407438731,44.434937499997645,26.047644182143472
13:03:27:06,2.4878387,-1.0384674,6.7040253,-0.06854248,0.26461792,-0.4021454,23.949686333333332,-8.999633666666668,-249.64956,7.225767167652203,0.4862526482095874,250.95796851201817,44.43493749999764,26.047644322084924
13:03:27:07,2.3274384,-0.68652344,6.529251,-0.11968994,0.22946167,-0.45115662,23.849487,-9.449768,-250.34943,6.965587021957662,0.5201159827444423,251.660352949649,44.43493749999763,26.04764446202638
13:03:27:08,1.8892975,-0.4638672,6.579529,-0.18359375,0.14318848,-0.5054779,23.849487,-9.825134250000001,-249.974825,6.8611092167799725,0.556522697858931,251.3024025496237,44.43493749999762,26.047644601967832
13:03:27:09,1.3577881,-0.35612488,6.943451,-0.21768188,0.08885193,-0.522522,23.849487,-10.2005005,-249.60022,7.08392018899547,0.5729828154744777,250.9444521495984,44.434937499997616,26.047644741909288
13:03:27:10,1.0321655,-0.32260132,7.2618713,-0.25709534,0.037719727,-0.5182648,23.849487,-9.97543325,-249.974825,7.341948788218267,0.5797578758186128,251.308135862727,44.43493749999761,26.04764488185074
13:03:27:11,0.8190918,-0.2507782,7.604248,-0.24005127,0.09524536,-0.45648193,23.849487,-9.750366,-250.34943,7.652345308983808,0.5244731101273614,251.67181957585564,44.4349374999976,26.047645021792196
13:03:27:12,0.68022156,-0.12388611,7.6569214,-0.17826843,0.16981506,-0.4074707,20.550537,-9.750366,-250.34943,7.688074821742939,0.4760768415875304,251.38065022878598,44.434937499997595,26.047645161733648
13:03:27:13,0.5844574,0.04849243,7.5898743,-0.114349365,0.19218445,-0.35954285,21.3752745,-9.300232,-250.27466,7.612498529259796,0.4234166991083704,251.35968267961437,44.43493749999759,26.047645301675104
13:03:27:14,0.4767151,0.24003601,7.407913,-0.06642151,0.14637756,-0.31053162,22.200012,-8.850098,-250.19989,7.427115832423358,0.3496685488888843,251.33871513044275,44.43493749999758,26.047645441616556
13:03:27:15,0.5581207,0.3597412,7.225952,-0.028076172,0.06755066,-0.26153564,22.699991666666666,-9.000142666666665,-250.65002666666666,7.256396816123684,0.2715736623658833,251.83760740378412,44.434937499997574,26.04764558155801
13:03:27:16,0.65148926,0.51057434,6.9937286,-0.013153076,-0.022994995,-0.23170471,23.199971333333334,-9.150187333333333,-251.10016333333334,7.042539608906701,0.23321416303367148,252.33649967712552,44.43493749999756,26.047645721499467
13:03:27:17,0.6634674,0.7068939,6.852463,-0.012084961,-0.069869995,-0.21679688,23.699951,-9.300232,-251.5503,6.920703515040142,0.2280981141119013,252.83539195046689,44.43493749999755,26.04764586144092
13:03:27:18,0.5772705,0.8002777,6.7447205,-0.08665466,-0.20410156,-0.18696594,23.0247495,-9.8999025,-251.699835,6.816519658183917,0.29003920358157237,252.94619918536347,44.434937499997545,26.047646001382375
13:03:27:19,0.4695282,0.8385773,6.7519073,-0.13246155,-0.2381897,-0.17098999,22.349548,-10.499573,-251.84937,6.819964868418592,0.32174208940499627,253.05700642026002,44.43493749999754,26.047646141323828
13:03:27:20,0.38334656,0.9559021,7.5276337,-0.2890625,-0.28186035,-0.115600586,21.899414,-10.649872,-252.074435,7.597761020933992,0.41995938052615983,253.2484237104184,44.43493749999753,26.047646281265283
13:03:27:21,0.37376404,0.9750519,8.365601,-0.33273315,-0.2701416,-0.09321594,21.44928,-10.800171,-252.2995,8.430522276614404,0.43860807633873555,253.43984100057676,44.434937499997524,26.047646421206736
13:03:27:22,0.33306885,1.0636292,9.15329,-0.37960815,-0.24137878,-0.033569336,21.599579,-9.8251345,-252.674865,9.220897990870139,0.45110194335670045,253.78860304114636,44.43493749999752,26.04764656114819
13:03:27:23,0.39770508,1.1210938,9.560303,-0.36470032,-0.15402222,0.0793457,21.749878,-8.850098,-253.05023,9.634023774667844,0.40376343045194274,254.13736508171598,44.43493749999751,26.047646701089644
13:03:27:24,0.5341797,1.1306763,9.696777,-0.34552002,-0.12207031,0.11557007,20.849609,-8.69979875,-252.89992999999998,9.777078348617382,0.38424170242713296,253.9085871187086,44.4349374999975,26.0476468410311
13:03:27:25,0.6969757,1.3964233,9.850006,-0.29652405,-0.067733765,0.18055725,19.94934,-8.5494995,-252.74963,9.972882800835944,0.35371640572221164,253.6798091557012,44.434937499997496,26.04764698097255
13:03:27:26,0.85739136,1.6621857,9.835632,-0.24005127,-0.053894043,0.23062134,20.324706499999998,-9.299468749999999,-252.74963,10.01187485363811,0.3372171148724429,253.73736287731583,44.43493749999749,26.047647120914007
13:03:27:27,1.017807,1.8034363,9.842819,-0.18891907,-0.10395813,0.26683044,20.700073,-10.049438,-252.74963,10.058300027547782,0.3430687853963916,253.79491659893046,44.43493749999748,26.04764726085546
13:03:27:28,1.0752716,1.8321686,9.809296,-0.17401123,-0.11354065,0.26896667,20.400238,-10.12496925,-252.825165,10.036699597388004,0.33987417810040277,253.8490637163552,44.43493749999747,26.047647400796915
13:03:27:29,1.1590576,1.7531586,9.933807,-0.1484375,-0.11781311,0.26470947,20.100403,-10.2005005,-252.9007,10.153693963780901,0.32555295084179936,253.90321083377995,44.43493749999746,26.047647540738367
13:03:27:30,1.1614532,1.6047211,10.161255,-0.11968994,-0.107162476,0.23381042,19.3504335,-10.350036750000001,-253.650665,10.352545895556343,0.2836843148646583,254.59945972572132,44.43493749999745,26.047647680679823
13:03:27:31,1.1303406,1.525711,10.467712,-0.10050964,-0.08477783,0.21783447,18.600464,-10.499573,-254.40063,10.638536480290576,0.2544431655844177,255.29570861766268,44.434937499997446,26.047647820621275
13:03:27:32,0.9890747,1.3724823,10.558685,-0.050445557,-0.020874023,0.19546509,19.3504335,-8.999634,-254.775235,10.693353326025395,0.2029460038186337,255.67296168808824,44.43493749999744,26.04764796056273
13:03:27:33,0.725708,1.2024994,10.494049,0.027328491,0.105895996,0.17521667,20.100403,-7.499695,-255.14984,10.587621136150716,0.20654706445519383,256.0502147585138,44.43493749999743,26.047648100504183
13:03:27:34,0.5006561,1.1570129,10.429398,0.04437256,0.14105225,0.18693542,19.7250365,-8.4747315,-254.92477000000002,10.505316655086492,0.23834746183165553,255.82929845338867,44.434937499997424,26.04764824044564
13:03:27:35,0.5293884,1.046875,10.412643,0.06248474,0.20497131,0.25405884,19.34967,-9.449768,-254.6997,10.478517719082625,0.33236045919773505,255.60838214826353,44.43493749999742,26.04764838038709
13:03:27:36,0.8190918,0.88645935,10.527557,0.06248474,0.20603943,0.27215576,18.599700499999997,-9.825134250000001,-254.32510000000002,10.596517255413623,0.3470235541699873,255.19484963812624,44.43493749999741,26.047648520328547
13:03:27:37,1.127945,0.8194275,10.6736145,0.0635376,0.12294006,0.2945404,17.849731,-10.2005005,-253.9505,10.764282040405272,0.32543099452683294,254.78131712798893,44.4349374999974,26.04764866027
13:03:27:38,1.6355133,0.7787323,10.975281,0.06674194,0.029205322,0.27749634,18.4501645,-10.57510375,-255.07507500000003,11.123763786529324,0.28690008034415554,255.9607581475154,44.434937499997396,26.047648800211455
13:03:27:39,2.013794,0.7044983,11.320038,0.06034851,-0.02619934,0.26045227,19.050598,-10.949707,-256.19965,11.519329166691215,0.2686330825192768,257.1401991670419,44.43493749999739,26.047648940152907
13:03:27:40,2.2388458,0.6063385,11.90184,0.018798828,-0.16041565,0.15924072,18.75,-9.8999025,-255.74951500000003,12.125752441739849,0.22681310280760783,256.6291466059313,44.43493749999738,26.047649080094363
13:03:27:41,2.0018158,0.39326477,12.63446,-0.007827759,-0.15615845,0.076156616,18.449402,-8.850098,-255.29938,12.798105452294603,0.17391539747226534,256.1180940448207,44.43493749999737,26.047649220035815
13:03:27:42,1.5325623,0.05328369,13.204285,-0.0067596436,-0.03364563,0.04206848,18.599701,-9.8251345,-256.575015,13.293033089412901,0.054290682526620726,257.43752658822893,44.43493749999736,26.04764935997727
13:03:27:43,1.1901855,-0.14543152,13.556229,0.02519226,0.19325256,0.08999634,18.75,-10.800171,-257.85065,13.609152675749536,0.21466379090069382,258.75695913163713,44.43493749999735,26.047649499918723
13:03:27:44,1.0561066,0.06047058,13.503555,0.07418823,0.39352417,0.17948914,17.700195,-9.8999025,-257.925415,13.544925820381376,0.43884110703381174,258.72522457638934,44.434937499997346,26.04764963986018
13:03:27:45,1.1231537,0.5225525,13.189911,0.10189819,0.44784546,0.26150513,16.65039,-8.999634,-258.00018,13.24795408872634,0.5285203214486692,258.69349002114154,44.43493749999734,26.04764977980163
13:03:27:46,1.3458099,0.8673096,12.916977,0.10295105,0.42866516,0.2892151,16.574859500000002,-9.524536000000001,-258.67539,13.01582594566012,0.5272552628110393,259.38131039793814,44.43493749999733,26.047649919743087
13:03:27:47,1.5900269,0.96307373,12.71347,0.03691101,0.2635498,0.33927917,16.499329,-10.049438,-259.3506,12.84865813978408,0.4311974894815008,260.06913077473473,44.434937499997325,26.04765005968454
13:03:27:48,1.8102875,0.95111084,12.835571,-0.04512024,0.1335907,0.33714294,16.724396,-10.049438,-258.975225,12.997447270855256,0.36544175072915686,259.70931034578894,44.43493749999732,26.047650199625995
13:03:27:49,1.9730988,0.6326752,13.292862,-0.118621826,0.031326294,0.31370544,16.949463,-10.049438,-258.59985,13.45338533359914,0.33684355030925306,259.34948991684314,44.43493749999731,26.047650339567447
13:03:27:50,1.9707031,-0.035308838,13.924942,-0.13885498,-0.025131226,0.28068542,17.099762,-10.049438,-258.824925,14.063745131569844,0.3141601327215786,259.5838076798302,44.434937499997304,26.047650479508903
13:03:27:51,1.7432556,-0.6362457,14.456451,-0.07600403,-0.051757812,0.25299072,17.250061,-10.049438,-259.05,14.575072013307546,0.26918355834892044,259.81812544281735,44.4349374999973,26.047650619450355
13:03:27:52,1.3889008,-1.2635345,14.808395,0.073135376,-0.030456543,0.23487854,16.950225500000002,-10.6498715,-259.50013,14.926959748755133,0.2478796336666323,260.2719624703525,44.43493749999729,26.04765075939181
13:03:27:53,1.127945,-1.8716583,14.398987,0.306427,0.054763794,0.24873352,16.65039,-11.250305,-259.95026,14.563865947651156,0.3984531885100995,260.7257994978877,44.43493749999728,26.047650899333263
13:03:27:54,0.8214874,-2.321762,13.453278,0.56422424,0.15809631,0.29240417,17.0249935,-11.250305,-260.84976500000005,13.676845735705538,0.654861538703093,261.6469388434663,44.43493749999727,26.04765103927472
13:03:27:55,0.79992676,-2.4366913,12.806839,0.79537964,0.24438477,0.34672546,17.399597,-11.250305,-261.74927,13.06110533166243,0.9014273304857658,262.5680781890448,44.43493749999726,26.04765117921617
13:03:27:56,1.0130157,-2.4845734,10.338425,0.94664,0.24118042,0.3818817,17.399597,-11.6249085,-261.524965,10.680933351962228,1.0488703053220005,262.3610862656768,44.434937499997254,26.047651319157627
13:03:27:57,1.1734314,-2.4199219,8.801346,0.9881897,0.14530945,0.38613892,17.399597,-11.999512,-261.30066,9.203078542766088,1.0708580601481033,262.15409434230884,44.43493749999725,26.04765145909908
13:03:27:58,1.3577881,-2.3648682,7.683258,0.9285431,0.021743774,0.36058044,17.549896,-12.8250125,-262.350465,8.152830405597609,0.9963349506947784,263.2505464479327,44.43493749999724,26.047651599040535
13:03:27:59,1.5421295,-2.3097992,6.9506226,0.79963684,-0.09011841,0.30625916,17.700195,-13.650513,-263.40027,7.48495091945977,0.8610081746360015,264.34699855355666,44.43493749999723,26.047651738981987
13:03:27:60,1.5900269,-2.1805115,6.5986786,0.61961365,-0.14976501,0.23806763,16.950225500000002,-13.500214,-263.77487499999995,7.129191764180132,0.6804607482731384,264.6646464425825,44.434937499997226,26.047651878923443
13:03:27:61,1.3865204,-2.158966,6.4669952,0.40975952,-0.17001343,0.1688385,16.200256,-13.349915,-264.14948,6.9574133070844075,0.47467238143086155,264.9822943316084,44.43493749999722,26.0476520188649
13:03:27:62,1.1710358,-2.1900787,6.644165,0.19351196,-0.14337158,0.11024475,16.949971333333334,-14.199829333333334,-264.24967666666663,7.093144444060076,0.2648701446318564,265.1779415368683,44.43493749999721,26.04765215880635
13:03:27:63,0.88612366,-2.2451477,7.003296,0.09336853,-0.114608765,0.087875366,17.699686666666665,-15.049743666666666,-264.34987333333333,7.407567630419791,0.17197363565041032,265.37358874212816,44.434937499997204,26.047652298747806
13:03:27:64,0.5293884,-2.3265533,7.561142,-0.15164185,0.02067566,0.064437866,18.449402,-15.899658,-264.45007,7.928680260923596,0.16605713523511134,265.56923594738805,44.4349374999972,26.04765243868926
13:03:27:65,0.19898987,-2.4055634,7.9705505,-0.23579407,0.115478516,0.085739136,18.600464,-16.499329,-263.99994,8.328025427004436,0.2761979915690077,265.168198392019,44.43493749999719,26.047652578630714
13:03:27:66,0.04576111,-2.4151459,8.281799,-0.265625,0.1485138,0.14219666,17.175293,-16.049957499999998,-263.475035,8.62688926982816,0.33590605759735204,264.52557816829403,44.434937499997176,26.047652718572166
13:03:27:67,0.06730652,-2.3624725,8.418274,-0.25390625,0.12614441,0.20185852,15.750122,-15.600586,-262.95013,8.74374883102018,0.3480339898054513,263.882957944569,44.43493749999717,26.047652858513622
13:03:27:68,0.18461609,-2.2140198,8.466156,-0.20809937,0.039855957,0.2519226,16.049957,-15.675353999999999,-263.10042999999996,8.752814643976812,0.32917904169849993,264.0553776421359,44.43493749999716,26.047652998455074
13:03:27:69,0.4695282,-2.0296783,8.437424,-0.15377808,-0.07626343,0.2838745,16.349792,-15.750122,-263.25073,8.69080977169919,0.33173564836191677,264.22779733970276,44.434937499997154,26.04765313839653
13:03:27:70,0.8549957,-1.8117981,8.370392,-0.10050964,-0.18171692,0.28068542,15.975189,-15.599823,-264.67514,8.60680499580687,0.3491525909223536,265.6158055715624,44.43493749999715,26.047653278337982
13:03:27:71,0.9531555,-1.7112427,8.174057,-0.053634644,-0.20410156,0.2508545,15.600586,-15.449524,-266.09955,8.405478262700614,0.32781412721493614,267.0038138034221,44.43493749999714,26.047653418279438
13:03:27:72,0.79992676,-1.6657562,7.846054,-0.038726807,-0.15829468,0.21783447,15.675353999999999,-15.525055,-265.499875,8.060718944989866,0.27204563517339986,266.4149993593375,44.43493749999713,26.04765355822089
13:03:27:73,0.5174103,-1.4933777,7.5898743,-0.062164307,-0.10183716,0.21464539,15.750122,-15.600586,-264.9002,7.752682262494954,0.24557656987161447,265.82618491525295,44.434937499997126,26.047653698162346
13:03:27:74,0.30194092,-1.4047852,7.5467834,-0.09837341,-0.040039062,0.23062134,16.200256,-16.425323499999998,-265.35033999999996,7.682351818540012,0.25390284902746474,266.35286844279346,44.43493749999712,26.0476538381038
13:03:27:75,0.2516632,-1.3281708,7.6377563,-0.118621826,0.00044250488,0.26470947,16.65039,-17.250061,-265.80048,7.756461392825763,0.29007315787887716,266.87955197033403,44.43493749999711,26.047653978045254
13:03:27:76,0.3857422,-1.1916962,7.6545258,-0.13034058,0.00044250488,0.30519104,15.82489,-16.799926499999998,-265.49987999999996,7.756333031840557,0.33185905668157806,266.50268921734244,44.434937499997105,26.047654117986706
13:03:27:77,0.61079407,-1.0145264,7.6066437,-0.13246155,-0.014480591,0.33821106,14.99939,-16.349792,-265.19928,7.698270038845989,0.3635140586695862,266.1258264643508,44.43493749999709,26.047654257928162
13:03:27:78,0.95077515,-0.75357056,7.580307,-0.14311218,-0.06880188,0.35099792,15.299987999999999,-15.674591,-265.27481,7.676776419110123,0.3852458106199381,266.1786175292559,44.43493749999708,26.047654397869614
13:03:27:79,1.2979279,-0.49020386,7.568329,-0.16442871,-0.1444397,0.33607483,15.600586,-14.99939,-265.35034,7.694447381729133,0.4010560047772418,266.231408594161,44.434937499997076,26.04765453781107
13:03:27:80,1.5995941,-0.25317383,7.695221,-0.19638062,-0.21794128,0.29133606,15.299987999999999,-15.674591,-265.875245,7.863791993166699,0.41344945192362564,266.77697142301145,44.43493749999707,26.047654677752522
13:03:27:81,1.8054962,-0.04727173,7.9514008,-0.22407532,-0.26055908,0.22209167,14.99939,-16.349792,-266.40015,8.153945414761635,0.409176603787335,267.32253425186184,44.43493749999706,26.047654817693978
13:03:27:82,1.795929,0.0748291,8.083084,-0.24858093,-0.2381897,0.13793945,14.92462175,-16.4245605,-266.24985000000004,8.28053182581311,0.37088287074500675,267.17317344576463,44.434937499997055,26.04765495763543
13:03:27:83,1.5397491,0.25439453,8.255463,-0.27946472,-0.18598938,0.06336975,14.8498535,-16.499329,-266.09955,8.401679190031821,0.3416259715134745,267.0238126396674,44.43493749999705,26.047655097576886
13:03:27:84,1.1949768,0.29031372,8.487701,-0.31143188,-0.08477783,0.021820068,14.8498535,-16.1247255,-266.09955,8.576323214172811,0.3235014864067365,267.0011895996057,44.43493749999704,26.047655237518338
13:03:27:85,0.95077515,0.38128662,8.753464,-0.3167572,-0.025131226,0.013305664,14.8498535,-15.750122,-266.09955,8.813199468509977,0.31803104088529466,266.978566559544,44.434937499997034,26.047655377459794
13:03:27:86,0.7735901,0.5776062,8.875565,-0.2975769,0.11868286,0.018630981,14.25018325,-15.975189,-266.699975,8.927918269917207,0.3209123651784268,267.558564474038,44.43493749999703,26.047655517401246
13:03:27:87,0.9531555,0.8792877,8.87796,-0.27841187,0.1335907,0.028213501,13.650513,-16.200256,-267.3004,8.972169527385867,0.3100897388209805,268.1385623885321,44.43493749999702,26.047655657342702
13:03:27:88,1.0704803,1.2431946,8.942596,-0.2230072,0.04624939,0.019699097,13.87558,-16.200256,-266.55044,9.091836123983606,0.22860286907610652,267.40267133765303,44.43493749999701,26.047655797284154
13:03:27:89,1.1016083,1.367691,8.9904785,-0.18891907,-0.08265686,0.0026550293,14.100647,-16.200256,-265.80048,9.160394269739275,0.20622710950626338,266.6667802867739,44.434937499997,26.04765593722561
13:03:27:90,1.1973724,1.4538879,9.07428,-0.17720032,-0.21582031,-0.015457153,13.650512500000001,-17.0249935,-265.35033999999996,9.267688396166983,0.27967352966532943,266.24781640720084,44.43493749999699,26.047656077167062
13:03:27:91,1.2931366,1.4826202,9.404678,-0.18786621,-0.32873535,-0.035705566,13.200378,-17.849731,-264.9002,9.608242982324688,0.38030978247051045,265.8288525276277,44.434937499996984,26.047656217108518
13:03:27:92,1.5576935,1.404808,9.9254225,-0.19212341500000002,-0.350036625,-0.0500793455,12.900542999999999,-16.799926499999998,-265.499875,10.147433183488715,0.4026468847375164,266.3458831015089,44.43493749999698,26.04765635704997
13:03:27:93,1.8222504,1.3269958,10.446167,-0.19638062,-0.3713379,-0.064453125,12.600708,-15.750122,-266.09955,10.68662338465274,0.4249839870045224,266.86291367539,44.43493749999697,26.047656496991426
13:03:27:94,2.1861725,1.2503815,10.992035,-0.17933655,-0.33724976,-0.09109497,12.30049125,-16.04995725,-266.84952,11.276862929756817,0.39267963067271644,267.6155778086936,44.43493749999696,26.047656636932878
13:03:27:95,2.3417969,1.1881409,11.279343,-0.1676178,-0.30529785,-0.11239624,12.0002745,-16.3497925,-267.59949,11.580987437638962,0.36597188260520797,268.3682419419972,44.434937499996956,26.047656776874334
13:03:27:96,2.4734802,1.1234894,11.602554,-0.10849762,-0.205696105,-0.19069672,11.70005775,-16.64962775,-268.34946,11.916358170792803,0.3296604435282833,269.1209060753008,44.43493749999695,26.047656916815786
13:03:27:97,2.2939148,0.5297241,12.483627,-0.04937744,-0.10609436,-0.2689972,11.399841,-16.949463,-269.09943,12.703684339864118,0.2933490044513586,269.8735702086044,44.43493749999694,26.04765705675724
13:03:27:98,2.05449675,0.2543945205,12.7362135,-0.024871826,-0.062408447,-0.28709412,11.699676499999999,-16.7999265,-268.049625,12.909354548949903,0.29484988676290935,268.8305187659477,44.434937499996934,26.047657196698694
13:03:27:99,1.8150787,-0.020935059,12.9888,0.035842896,0.08459473,-0.30413818,11.999512,-16.65039,-266.99982,13.115024758035686,0.31771215600154823,267.787467323291,44.43493749999693,26.04765733664015
13:03:28:00,1.6690216,-0.19810486,13.201889,0.061416626,0.17300415,-0.2828369,11.325073499999998,-17.324829,-267.15011000000004,13.308446633816553,0.3371930454028617,267.9524087955202,44.43493749999691,26.047657476581602
13:03:28:01,1.7025452,-0.21247864,13.18512,0.092300415,0.23266602,-0.24662781,10.650635,-17.999268,-267.3004,13.296285073090878,0.3513945362939053,268.1173502677495,44.434937499996906,26.047657616523058
13:03:28:02,1.5708618,-0.12628174,13.601715,0.14237976,0.23373413,-0.23384094,10.900370333333333,-18.349711333333335,-267.80038333333334,13.692706263327993,0.3599794783103588,268.65010322846865,44.4349374999969,26.04765775646451
13:03:28:03,1.6474762,-0.32022095,13.412582,0.18817139,0.22946167,-0.22958374,11.150105666666667,-18.700154666666666,-268.30036666666666,13.517177042308404,0.37519304855781727,269.18285618918776,44.43493749999689,26.047657896405966
13:03:28:04,1.7839508,-0.24838257,13.00795,0.34796143,0.15596008,-0.19442749,11.399841,-19.050598,-268.80035,13.132057628582066,0.4280219062021843,269.7156091499069,44.434937499996884,26.047658036347418
13:03:28:05,1.9228134,-0.1334609995,12.567421,0.39483643,0.13465881,-0.18164062,11.399841,-19.275665,-268.199925,12.71648329382073,0.454996831197477,269.1333862378261,44.43493749999688,26.047658176288873
13:03:28:06,2.061676,-0.018539429,12.126892,0.42892456,0.00044250488,-0.17311096,11.399841,-19.500732,-267.5995,12.300908959059393,0.46254067762077317,268.5511633257452,44.43493749999687,26.04765831623033
13:03:28:07,2.4902344,0.13468933,11.844376,0.32453918,-0.1678772,-0.2306366,11.7752075,-20.250701499999998,-267.44995,12.104075818167003,0.4320898921456881,268.4752169745415,44.43493749999686,26.04765845617178
13:03:28:08,2.8421936,0.019760132,11.942535,0.2276001,-0.20835876,-0.3052063,12.150574,-21.000671,-267.3004,12.276098612707647,0.43401159425577285,268.3992706233378,44.434937499996856,26.047658596113237
13:03:28:09,2.9008484,-0.314231884,12.19392375,0.158355715,-0.15509796,-0.3930893,11.4753725,-20.1751705,-267.75054,12.542435628203828,0.4668287292510827,268.7569262467949,44.43493749999685,26.04765873605469
13:03:28:10,2.9595032,-0.6482239,12.4453125,0.08911133,-0.10183716,-0.4809723,10.800171,-19.34967,-268.20068,12.808772643700008,0.49964586424639257,269.1145818702519,44.43493749999684,26.047658875996145
13:03:28:11,2.8110657,-1.0983276,12.349548,0.0869751,0.037719727,-0.5608673,10.650635,-21.749878,-266.54968,12.712975642662983,0.5688229724916658,267.64757635185214,44.43493749999683,26.047659015937597
13:03:28:12,2.4854584,-1.546051,12.062241,0.11680603,0.18260193,-0.61413574,10.650635,-21.749878,-266.54968,12.412309821093436,0.6512678562845194,267.64757635185214,44.43493749999682,26.047659155879053
13:03:28:13,2.202942,-1.7687073,11.399048,0.16047668,0.29231262,-0.6301117,10.650635,-21.749878,-266.54968,11.743916479383754,0.7129096626585846,267.64757635185214,44.43493749999681,26.047659295820505
13:03:28:14,2.23286445,-1.9458771,10.545517,0.18018341,0.29924011,-0.61839295,10.2752685,-22.125244000000002,-267.44995,10.960232144431263,0.7106257830971566,268.56068557603516,44.434937499996806,26.04765943576196
13:03:28:15,2.2627869,-2.1230469,9.691986,0.19989014,0.3061676,-0.6066742,9.899902,-22.50061,-268.35022,10.176547809478773,0.7083419035357287,269.4737948002182,44.4349374999968,26.047659575703413
13:03:28:16,2.4734802,-2.19487,9.088654,0.17112732,0.20709229,-0.6088104,10.350036333333334,-23.650614333333333,-268.40006666666665,9.671566064935298,0.6654486301556165,269.6443354866089,44.43493749999679,26.04765971564487
13:03:28:17,2.657837,-2.202057,8.650513,0.11254883,0.07180786,-0.61839294,10.800170666666668,-24.80061866666667,-268.4499133333333,9.313674232706822,0.6326400525843998,269.81487617299956,44.434937499996785,26.04765985558632
13:03:28:18,2.753601,-2.1805115,8.590652,0.02519226,-0.046432495,-0.6514282,11.250305,-25.950623,-268.49976,9.280961731088931,0.6535666196426135,269.9854168593903,44.43493749999678,26.047659995527777
13:03:28:19,2.6781845000000004,-2.1721267500000003,8.7402875,-0.05257416,-0.0741348275,-0.67858885,11.174774,-25.3501895,-268.04963,9.396711296524366,0.6892201424907569,269.478057090323,44.43493749999677,26.04766013546923
13:03:28:20,2.602768,-2.163742,8.889923,-0.13034058,-0.10183716,-0.7057495,11.099243,-24.749756,-267.5995,9.5124608619598,0.7248736653389003,268.9706973212557,44.434937499996764,26.047660275410685
13:03:28:21,2.4040527,-2.1924744,9.043152,-0.16654968,-0.036849976,-0.7046814,10.800171,-25.19989,-269.70062,9.610671749369898,0.7250328214262186,271.0905800245109,44.43493749999676,26.047660415352137
13:03:28:22,2.20892335,-1.9985428,8.91626,-0.139389035,0.056892397000000004,-0.65408325,11.100006,-26.249695,-269.92569000000003,9.403296773198154,0.6785386849980697,271.4281919937528,44.43493749999674,26.047660555293593
13:03:28:23,2.013794,-1.8046112,8.789368,-0.11222839,0.15063477,-0.6034851,11.399841,-27.2995,-270.15076,9.19592179702641,0.6320445485699209,271.7658039629947,44.434937499996735,26.047660695235045
13:03:28:24,2.0018158,-1.5987244,8.523621,-0.09197998,0.18153381,-0.5704651,11.025238,-26.7745975,-270.375065,8.900297812765931,0.6056775307140975,271.92196030473514,44.43493749999673,26.0476608351765
13:03:28:25,2.0975952,-1.1605835,8.114212,-0.06535339,0.21562195,-0.5182648,10.650635,-26.249695,-270.59937,8.460927612530394,0.565121485899567,272.07811664647556,44.43493749999672,26.047660975117953
13:03:28:26,2.305893,-0.43273926,7.5156555,-0.07067871,0.13679504,-0.4862976,11.150614666666666,-27.449544333333332,-270.44983333333334,7.873340040241791,0.5100918728833324,272.07416262651674,44.434937499996714,26.04766111505941
13:03:28:27,2.3130722500000003,-0.12628173999999998,7.2403259,-0.104766845,0.076072691,-0.511337275,11.650594333333334,-28.64939366666667,-270.30029666666667,7.6084272218556634,0.5321815399652932,272.07020860655786,44.43493749999671,26.04766125500086
13:03:28:28,2.3202515,0.18017578,6.9649963,-0.13885498,0.015350342,-0.53637695,12.150574,-29.849243,-270.15076,7.343514403469537,0.5542712070472539,272.06625458659903,44.4349374999967,26.047661394942317
13:03:28:29,2.231659,0.30467224,6.9099274,-0.16548157,-0.008087158,-0.55981445,11.4753725,-29.2495725,-269.17571999999996,7.267752316870628,0.5838165555745951,271.00448104169794,44.43493749999669,26.04766153488377
13:03:28:30,1.848587,0.49621582,7.0009003,-0.25604248,-0.03791809,-0.6301117,10.800171,-28.649902,-268.20068,7.257830877550631,0.6812020901250146,269.94270749679686,44.434937499996686,26.047661674825225
13:03:28:31,1.4607391,0.48184204,7.281021,-0.30290222,-0.03152466,-0.6588745,12.89978,-28.050232,-269.85016,7.441720047960765,0.7258506498029013,271.61061962178104,44.43493749999668,26.047661814766677
13:03:28:32,1.08005522,0.43635559,7.65332025,-0.28799438499999996,0.005226135,-0.65621185,12.89978,-28.9497375,-270.22476500000005,7.753615512309608,0.7177016217646175,272.0783818722101,44.43493749999667,26.047661954708133
13:03:28:33,0.69937134,0.39086914,8.0256195,-0.27308655,0.04197693,-0.6535492,12.89978,-29.849243,-270.59937,8.065510976658452,0.7095525937263336,272.54614412263913,44.434937499996664,26.047662094649585
13:03:28:34,0.2923584,0.3022766,8.083084,-0.2144928,0.0867157,-0.59602356,13.099670333333334,-30.19968666666667,-270.39948000000004,8.094015785011425,0.6393519046295268,272.3965159294936,44.43493749999665,26.04766223459104
13:03:28:35,0.18461609,0.33340454,8.116608,-0.151641845,0.0638122565,-0.50654602,13.299560666666666,-30.550130333333332,-270.19959,8.125550265283177,0.5338624774147166,272.246887736348,44.43493749999664,26.047662374532493
13:03:28:36,0.43362427,0.60154724,7.8987274,-0.08879089,0.040908813,-0.41706848,13.499451,-30.900574,-269.9997,7.933459751520481,0.42837305019990635,272.0972595432025,44.434937499996636,26.04766251447395
13:03:28:37,0.7712097,0.7715454,7.767044,-0.07388306,-0.046432495,-0.36486816,12.600708,-29.55017,-269.85016,7.843278600405015,0.37515790985753483,271.7555873227923,44.43493749999663,26.0476626544154
13:03:28:38,1.0154114,0.967865,7.700012,-0.08879089,-0.14337158,-0.33717346,12.650553333333333,-30.250040000000002,-269.55007333333333,7.8267495021636515,0.3769949259964384,271.53897385093256,44.43493749999662,26.047662794356857
13:03:28:39,1.0608978,1.0444794,7.822113,-0.13832855,-0.213150025,-0.33769989,12.700398666666667,-30.94991,-269.2499866666667,7.962530574122664,0.428153088603507,271.3223603790729,44.434937499996614,26.04766293429831
13:03:28:40,0.9028778,1.0780029,8.135757,-0.18786621,-0.28292847,-0.33822632,12.750244,-31.64978,-268.9499,8.256380595466167,0.4793112512105755,271.1057469072132,44.43493749999661,26.047663074239765
13:03:28:41,0.725708,1.01335905,8.70916725,-0.22514342999999998,-0.25629425,-0.315856935,12.675476,-31.124878000000002,-269.40003,8.801711447013263,0.4675499371463099,271.4887454901366,44.4349374999966,26.047663214181217
13:03:28:42,0.5485382,0.9487152,9.2825775,-0.26242065,-0.22966003,-0.29348755,12.600708,-30.599976,-269.85016,9.347042298560359,0.4557886230820443,271.87174407306003,44.43493749999659,26.047663354122673
13:03:28:43,0.52459717,0.90322876,9.596222,-0.26242065,-0.17745972,-0.26792908,12.675476,-31.275177,-269.77539,9.65290117306435,0.41490064073046123,271.8787091085755,44.434937499996586,26.047663494064125
13:03:28:44,0.45037842,0.80744934,10.410248,-0.2102356,-0.029388428,-0.17524719,12.750244,-31.950378,-269.70062,10.451223783814607,0.2752712567824096,271.88567414409096,44.43493749999658,26.04766363400558
13:03:28:45,0.57247925,0.83618164,10.721497,-0.12820435,0.06541443,-0.11026001,12.900288666666667,-32.45035766666667,-269.45038,10.769281784212104,0.18130822600297952,271.7049048392254,44.434937499996565,26.047663773947033
13:03:28:46,0.7496490499999999,0.868507385,10.6592485,-0.019012454999999998,0.122940065,-0.0703125,13.050333333333334,-32.95033733333333,-269.20014000000003,10.722404995848859,0.19266175106465602,271.52413553435974,44.43493749999656,26.04766391388849
13:03:28:47,0.92681885,0.90083313,10.597,0.09017944,0.1804657,-0.03036499,13.200378,-33.450317,-268.9499,10.67552820748561,0.20401527612633252,271.34336622949417,44.43493749999655,26.04766405382994
13:03:28:48,0.92204285,0.9104004,10.161255,0.17752075,0.19325256,-0.023986816,12.950134,-33.700052666666664,-269.4498766666667,10.243539187242918,0.263506235161398,271.85815323065583,44.43493749999654,26.047664193771396
13:03:28:49,0.8119049,0.79548645,9.691986,0.21907043,0.17727661,-0.026107788,12.69989,-33.94978833333333,-269.94985333333335,9.75841077650319,0.28302025783984075,272.37294023181744,44.434937499996536,26.04766433371285
13:03:28:50,0.6275482,0.6853485,9.45256,0.2169342,0.15170288,-0.015457153,12.449646,-34.199524,-270.44983,9.49812665020716,0.26516623938352296,272.8877272329791,44.43493749999653,26.047664473654304
13:03:28:51,0.71614075,0.56085205,9.505234,0.19137573,0.14318848,0.012237549,12.69989,-34.099832666666664,-270.44983,9.54865885821437,0.23932690706076218,272.88704890642646,44.43493749999653,26.047664513012837
13:03:28:52,0.9890747,0.44831848,9.6345215,0.15995025499999999,0.15223694,0.0165023805,12.950134,-34.00014133333333,-270.44983,9.6955279771476,0.22330089418464144,272.88637057987376,44.43493749999652,26.047664552371373
13:03:28:53,1.2500458,0.4004364,10.077454,0.12852478,0.1612854,0.020767212,13.200378,-33.90045,-270.44983,10.162580525371427,0.2072748813085207,272.8856922533211,44.43493749999652,26.047664591729905
13:03:28:54,1.3482056,0.36213684,10.350388,0.1146698,0.1762085,0.012237549,13.500467666666667,-34.300230666666664,-270.99965333333336,10.444105188157602,0.21059049387334033,273.49577787788286,44.43493749999652,26.04766463108844
13:03:28:55,1.3529968,0.029342651,10.925003,0.09976196,0.24331665,-0.026107788,13.800557333333334,-34.700011333333336,-271.5494766666667,11.008503616840345,0.26426701917665973,274.10586350244455,44.434937499996515,26.047664670446974
13:03:28:56,1.2428589,-0.11431885,11.358353,0.084854126,0.26568604,-0.04208374,14.100647,-35.099792,-272.0993,11.426720873346977,0.2820644176823675,274.7159491270063,44.434937499996515,26.04766470980551
13:03:28:57,1.132721,-0.26036072,11.865921,0.07206726,0.30403137,-0.04421997,13.650513,-37.8006,-271.3501,11.92270630966816,0.31556959558041303,274.31022335219876,44.434937499996515,26.047664749164042
13:03:28:58,0.9531555,-0.4064026,12.3064575,0.08590698,0.3892517,-0.031433105,13.600159,-37.20042,-271.05001,12.350002618614024,0.39985614320096596,273.929844538798,44.434937499996515,26.047664788522574
13:03:28:59,0.73768616,-0.427948,12.632065,0.14716339,0.4861908,0.021293640499999995,13.549805000000001,-36.60024,-270.74992000000003,12.660820926211086,0.511760683288885,273.5494657253972,44.43493749999651,26.04766482788111
13:03:28:60,0.48869324,-0.24598694,12.873886,0.2084198,0.5831299,0.074020386,13.499451,-36.00006,-270.44983,12.885506253091815,0.6236652233768041,273.1690869119965,44.43493749999651,26.047664867239643
13:03:28:61,0.5293884,-0.09037781,12.957672,0.32453918,0.62467957,0.1816101,14.399719,-35.549927,-270.59937,12.968796547335414,0.7270023885466039,273.3041680278243,44.43493749999651,26.04766490659818
13:03:28:62,0.6778259,0.09877014,12.821213,0.42360686999999997,0.539459235,0.29133604999999996,14.300028333333334,-36.30015133333333,-271.0993466666667,12.839497898385101,0.7636175529080133,273.8941345522823,44.4349374999965,26.04766494595671
13:03:28:63,1.2045593,0.9175873,11.889862,0.52267456,0.4542389,0.401062,14.200337666666666,-37.05037566666667,-271.59932333333336,11.98589787789725,0.8002327172694226,274.48410107674033,44.4349374999965,26.047664985315247
13:03:28:64,1.4942474,1.1163025,11.652832,0.529068,0.34877014,0.44154358,14.100647,-37.8006,-272.0993,11.801160967639454,0.7723433771444124,275.07406760119835,44.4349374999965,26.04766502467378
13:03:28:65,2.3382034000000003,1.1175003000000001,11.723465000000001,0.44651032,0.06807708500000004,0.44633484,14.6255495,-37.575532,-271.49963,12.034061785648973,0.6948713131926536,274.47806279193287,44.434937499996494,26.047665064032312
13:03:28:66,3.1821594,1.1186981,11.794098,0.36395264,-0.21261597,0.4511261,15.150452,-37.350464,-270.89996,12.266962603658493,0.6173992492408947,273.88205798266745,44.434937499996494,26.047665103390848
13:03:28:67,3.780716,0.6614075,12.220261,0.30322266,-0.34150696,0.3722992,15.00015275,-37.350464,-270.89996,12.8088271228022,0.5892178540969012,273.87382604703214,44.434937499996494,26.04766514274938
13:03:28:68,3.916387,-0.03131609999999996,12.353541333333334,0.3085530633333333,-0.28398641,0.23523458233333333,14.8498535,-37.350464,-270.89996,12.99656241972562,0.5138962657015919,273.86559411139683,44.434937499996494,26.047665182107917
13:03:28:69,4.052058,-0.7240397,12.486821666666666,0.31388346666666667,-0.22646586000000002,0.09816996466666666,15.14968875,-37.274932,-270.07523000000003,13.184297716649043,0.4385746773062825,273.05619227345346,44.43493749999649,26.04766522146645
13:03:28:70,4.187729,-1.4167633,12.620102,0.31921387,-0.16894531,-0.038894653,15.449524,-37.1994,-269.2505,13.372033013572464,0.36325308891097324,272.24679043551015,44.43493749999649,26.047665260824985
13:03:28:71,3.7352295,-2.0344696,12.059845,0.3607483,-0.025131226,-0.19442749,14.8498535,-39.300537,-271.3501,12.78791880624128,0.41057637942391817,274.5831879913077,44.43493749999649,26.047665300183517
13:03:28:72,3.421585,-2.2547302,11.686356,0.3756714,0.045181274,-0.26579285,15.97518925,-40.0505065,-270.75043,12.38393995244458,0.4624026247863928,274.16611675799976,44.43493749999648,26.04766533954205
13:03:28:73,2.5740356,-2.735962,10.39827,0.3522339,0.18792725,-0.40534973,17.100525,-40.800476,-270.15076,11.056001371581472,0.5689409241853194,273.74904552469184,44.43493749999648,26.047665378900586
13:03:28:74,2.2963104,-2.8891907,9.754242,0.28405762,0.2124176,-0.46392822,17.150370333333335,-40.45054066666667,-270.35065,10.429079602183437,0.5839857546055321,273.89804815891324,44.43493749999648,26.04766541825912
13:03:28:75,1.8821105999999999,-2.98854835,9.480102500000001,0.19883728,0.173538205,-0.5305099600000001,17.200215666666665,-40.100605333333334,-270.55054,10.124725142271867,0.603264584326738,274.0470507931347,44.43493749999647,26.047665457617654
13:03:28:76,1.4679108,-3.087906,9.205963,0.11361694,0.13465881,-0.5970917,17.250061,-39.75067,-270.75043,9.820370682360297,0.6225434140479439,274.1960534273561,44.43493749999647,26.047665496976187
13:03:28:77,1.259613,-3.178894,9.201172,0.07206726,0.12614441,-0.616272,17.324829,-40.800475,-271.424865,9.815984828156012,0.6331644968901492,275.0221190365304,44.43493749999647,26.04766553633472
13:03:28:78,0.71614075,-3.1884613,9.2035675,-0.039794922,0.11975098,-0.616272,17.399597,-41.85028,-272.0993,9.766514104964193,0.6290589090156394,275.84818464570475,44.43493749999647,26.047665575693255
13:03:28:79,0.4360199,-3.052002,9.383133,-0.083465576,0.14744568,-0.5896301,17.8497315,-42.224883500000004,-270.97473,9.876639836345609,0.6134903306113995,274.826165207366,44.434937499996465,26.047665615051788
13:03:28:80,0.17864227500000002,-2.8868026999999996,9.357994000000001,-0.08506011799999999,0.20124054000000002,-0.544357285,18.299866,-42.599487,-269.85016,9.799274216797102,0.5903105870111929,273.8041457690273,44.434937499996465,26.047665654410324
13:03:28:81,-0.07873535,-2.7216034,9.332855,-0.08665466,0.2550354,-0.49908447,18.75,-42.150116,-269.77539,9.721908597248596,0.5671308434109862,273.6920777346098,44.434937499996465,26.047665693768856
13:03:28:82,-0.18408203,-2.565979,9.215546,-0.083465576,0.28379822,-0.46713257,19.200134,-41.700745,-269.70062,9.567884954383906,0.5529202202913048,273.5800097001924,44.43493749999646,26.047665733127392
13:03:28:83,-0.43547058,-2.1541748,8.913864,-0.07600403,0.3104248,-0.3563385,19.200134,-42.6002505,-269.47556,9.180799262890817,0.4786619847173273,273.4983674947489,44.43493749999646,26.047665772485924
13:03:28:84,-0.6294098,-2.012909,8.794159,-0.06109619,0.27954102,-0.2732544,19.200134,-43.499756,-269.2505,9.043516564694182,0.39565628190958435,273.4167252893054,44.43493749999646,26.047665811844457
13:03:28:85,-0.536026,-1.7902527,8.674454,-0.03552246,0.24757385,-0.18270874,18.824768,-44.2497255,-269.47556,8.873470617557107,0.3097372112624857,273.7337046553872,44.43493749999645,26.047665851202993
13:03:28:86,-0.26309204,-1.5795593,8.585861,0.008148193,0.23373413,-0.10600281,18.449402,-44.999695,-269.70062,8.733912875398337,0.2567773983510197,274.05068402146895,44.43493749999645,26.047665890561525
13:03:28:87,-0.08352661,-1.4239349,8.461365,0.033721924,0.22520447,-0.076171875,19.2749025,-44.3244935,-269.92569000000003,8.580749673381755,0.24011742129062252,274.22111455989256,44.43493749999645,26.04766592992006
13:03:28:88,0.58924866,-1.0480499,7.88916,0.10722351,0.19857788,-0.049545288,20.100403,-43.649292,-270.15076,7.9802548882727935,0.2310514901164185,274.39154509831616,44.434937499996444,26.047665969278594
13:03:28:89,0.9196472,-0.83018494,7.410309,0.115737915,0.16555786,-0.07511902,21.2249755,-43.649292,-270.15076,7.5131642789540845,0.21551690685903793,274.4785064566703,44.434937499996444,26.04766600863713
13:03:28:90,1.1255493,-0.59794617,7.1086426,0.082717896,0.113357544,-0.13050842,22.349548,-43.649292,-270.15076,7.221994216522394,0.19163671566606216,274.56546781502436,44.434937499996444,26.047666047995662
13:03:28:91,1.2620087,-0.40161133,7.1277924,0.026260376,0.031326294,-0.19122314,21.675109499999998,-43.949891,-268.57529,7.249784970380695,0.19554343076384698,273.0104373505849,44.434937499996444,26.047666087354195
13:03:28:92,1.2620087,-0.40879822,7.328903,-0.028076172,-0.051757812,-0.2593994,21.000671,-44.25049,-266.99982,7.447993093911934,0.2659984798031014,271.4554068861454,44.43493749999644,26.04766612671273
13:03:28:93,1.2093353,-0.423172,7.465378,-0.07067871,-0.105026245,-0.32331848,21.3005065,-44.7006235,-267.67502,7.5745254037658425,0.34721870873496224,272.21671967353575,44.43493749999644,26.047666166071263
13:03:28:94,1.2667999,-0.40400696,7.6305847,-0.11968994,-0.14125061,-0.37765503,21.600342,-45.150757,-268.35022,7.745568182789597,0.42059569451775963,272.97803246092604,44.43493749999644,26.0476662054298
13:03:28:95,1.4427718999999999,-0.36569977,7.7586746,-0.17826843,-0.15402222,-0.43197632,21.224975999999998,-45.0004585,-268.575285,7.90169746827716,0.4920426998027059,273.1454021490327,44.43493749999643,26.04766624478833
13:03:28:96,1.6187439,-0.32739258,7.8867645,-0.25816345,-0.16467285,-0.5022888,20.84961,-44.85016,-268.80035,8.057826753764722,0.5882682662259329,273.31277183713934,44.43493749999643,26.047666284146867
13:03:28:97,1.630722,-0.32022095,8.056747,-0.30290222,-0.16894531,-0.5459595,21.149445,-44.7753915,-268.27545,8.226358120098583,0.6468106742255995,272.8075650673462,44.43493749999643,26.0476663235054
13:03:28:98,1.709732,-0.26036072,8.880356,-0.41156006,-0.16148376,-0.66633606,21.44928,-44.700623,-267.75055,9.04719259787692,0.799663949785949,272.30235829755316,44.43493749999642,26.047666362863932
13:03:28:99,1.8533783,-0.24121094,9.445389,-0.43925476,-0.15083313,-0.73983765,21.899414,-44.174957500000005,-268.575285,9.628528818142863,0.8735302660158817,273.0645950033834,44.43493749999642,26.047666402222468
13:03:29:00,1.9467621,-0.15022278,10.079849,-0.4328766,-0.15402222,-0.81333923,22.349548,-43.649292,-269.40002,10.267219946043248,0.9341443668610764,273.82683170921354,44.43493749999642,26.047666441581
13:03:29:01,2.0473175,-0.14303589,10.664032,-0.3870697,-0.16680908,-0.9017639,22.299702666666665,-44.349670333333336,-269.35017999999997,10.859721299769085,0.9954026085819477,273.8880664817656,44.43493749999642,26.047666480939537
13:03:29:02,2.006607,-0.16459656,10.93457,-0.3433838,-0.17427063,-0.9475708,22.249857333333335,-45.05004866666667,-269.30034,11.1183804920012,1.0228260397524485,273.9493012543177,44.434937499996416,26.04766652029807
13:03:29:03,1.5565033,-0.2220459,11.214706,-0.1867981,-0.1870575,-1.047699,22.200012,-45.750427,-269.2505,11.324382436629985,1.08053562323084,274.0105360268697,44.434937499996416,26.047666559656605
13:03:29:04,1.3506012,-0.22923279,11.078232,-0.08453369,-0.18278503,-1.0700684,21.749878,-43.499756,-267.44995,11.16261150086648,1.0888538435509503,271.8359095485306,44.434937499996416,26.047666599015137
13:03:29:05,1.2835693,-0.10952759,10.9704895,-0.016357422,-0.1763916,-1.0679321,22.099813,-44.299825,-268.0999733333333,11.045867386062714,1.0825250722341058,272.63449277584715,44.43493749999641,26.04766663837367
13:03:29:06,1.3793335,-0.038894655,10.84719075,0.0001602170000000007,-0.191307065,-1.0546188,22.449748,-45.099894,-268.7499966666667,10.935391087104465,1.0720927884319074,273.4330760031637,44.43493749999641,26.047666677732206
