,ax,ay,az,gx,gy,gz,mx,my,mz,a_total,g_total,m_total
11:05:07:87,0.7616272,0.29270935,9.909866,,,,,,,9.94339976533747,,
11:05:07:88,0.7975464,0.21609497,9.80452,,,,,,,9.839277906767968,,
11:05:07:89,0.90527344,0.13708496,10.192368,,,,,,,10.233409878180959,,
11:05:07:90,0.8885193,0.19932556,10.192368,,,,,,,10.232964510481105,,
11:05:07:91,0.8382416,0.21369934,9.955353,,,,,,,9.9928659423859,,
11:05:07:92,0.7915573250000001,0.23045348999999998,9.909859,,,,52.49939,-50.849915,-264.75067,9.944201264350877,,274.65399518544825
11:05:07:93,0.74487305,0.24720764,9.864365,,,,52.55779722222222,-50.833215055555556,-264.65064,9.895536586315856,,274.56583868803614
11:05:07:94,0.8334503,0.24003601,9.8715515,,,,52.61620444444444,-50.816515111111116,-264.55061,9.909580501000992,,274.47768219062397
11:05:07:95,0.80711365,0.2807312,9.823669,0.037979126,-0.018737793,0.050582886,52.674611666666664,-50.79981516666667,-264.45058,9.860766454603352,0.06597080607604944,274.38952569321185
11:05:07:96,0.8153601777777778,0.28631761111111115,9.853995000000001,0.053955078,0.04411316,0.051651,52.733018888888886,-50.78311522222222,-264.35055,9.891836813860811,0.08674645311579998,274.30136919579974
11:05:07:97,0.8236067055555556,0.2919040222222222,9.884321,0.018798828,0.026000977,0.044189453,52.79142611111111,-50.76641527777778,-264.25052,9.922907173118272,0.054609106342874005,274.21321269838757
11:05:07:98,0.8318532333333334,0.29749043333333336,9.914647,-0.041915894,0.11868286,0.03781128,52.84983333333333,-50.749715333333334,-264.15049,9.953977532375731,0.13142395642666233,274.12505620097545
11:05:07:99,0.8400997611111112,0.30307684444444444,9.944973000000001,-0.08239746,0.18153381,0.041000366,52.90824055555555,-50.73301538888889,-264.05046,9.98504789163319,0.20353106789800335,274.03689970356334
11:05:08:00,0.8483462888888889,0.30866325555555557,9.975299,-0.05683899,0.12294006,0.029281616,52.96664777777777,-50.71631544444445,-263.95043,10.016118250890651,0.13857251593514192,273.94874320615116
11:05:08:01,0.8565928166666666,0.31424966666666665,10.005625,0.026260376,-0.036849976,0.011169434,53.025054999999995,-50.6996155,-263.85040000000004,10.04718861014811,0.04660777118402368,273.86058670873905
11:05:08:02,0.8648393444444444,0.3198360777777778,10.035951,0.042236328,-0.12420654,0.029281616,53.083462222222224,-50.68291555555555,-263.75037000000003,10.078258969405569,0.134419436902803,273.77243021132693
11:05:08:03,0.8730858722222222,0.3254224888888889,10.066277,0.05076599,-0.05708313,0.032485962,53.141869444444445,-50.66621561111111,-263.65034,10.10932932866303,0.08301209067565064,273.68427371391476
11:05:08:04,0.8813324,0.3310089,10.096603,0.051818848,-0.025131226,0.03353882,53.20027666666667,-50.649515666666666,-263.55031,10.140399687920489,0.06664550979100227,273.59611721650265
11:05:08:05,0.7759857,0.26158142,10.091812,0.051818848,-0.020469665875,0.03367233425,53.25868388888889,-50.63281572222222,-263.45028,10.124981387105741,0.06625082389059557,273.50796071909053
11:05:08:06,0.79992676,0.3022766,10.108582,0.051818848,-0.01580810575,0.0338058485,53.31709111111111,-50.61611577777778,-263.35025,10.144687477443338,0.06585613799018887,273.41980422167836
11:05:08:07,0.8693695,0.15383911,9.905075,0.051818848,-0.011146545624999999,0.03393936275,53.37549833333333,-50.59941583333333,-263.25022,9.944344149058843,0.06546145208978217,273.33164772426625
11:05:08:08,0.9124603,0.25679016,9.665649,0.051818848,-0.006484985499999998,0.034072877,53.433905555555555,-50.582715888888885,-263.15019,9.712018100093816,0.06506676618937547,273.24349122685413
11:05:08:09,0.9100647,0.30467224,9.826065,0.051818848,-0.0018234253749999998,0.034206391249999996,53.49231277777778,-50.566015944444445,-263.05016,9.872821092080912,0.06467208028896877,273.15533472944196
11:05:08:10,0.8909149,0.31425476,9.818878,0.051818848,0.002838134750000002,0.0343399055,53.55072,-50.549316,-262.95013,9.864220729084922,0.06427739438856207,273.06717823202985
11:05:08:11,0.89331055,0.3381958,9.818878,0.051818848,0.007499694875000004,0.03447341975,53.700256,-50.100708,-262.8006,9.865229106146645,0.06388270848815537,272.86984772401433
11:05:08:12,0.7831726,0.34776306,9.833252,0.051818848,0.012161255,0.034606934,53.6064145,-49.76310725,-262.61310749999996,9.87051890038185,0.06348802258774867,272.6101468678339
11:05:08:13,0.801370234,0.346328734,9.8313354,-0.02168274,0.152771,0.0473938,53.512573,-49.4255065,-262.425615,9.870088165118702,0.16141651691616815,272.35044601165356
11:05:08:14,0.819567868,0.344894408,9.829418800000001,-0.03126526,0.12294006,0.038864136,53.4187315,-49.08790575,-262.2381225,9.869657429855556,0.13267326747577185,272.09074515547314
11:05:08:15,0.837765502,0.343460082,9.8275022,-0.0035705566,-0.040039062,0.0154418945,53.324889999999996,-48.750305,-262.05062999999996,9.869226694592408,0.04306190272181175,271.8310442992928
11:05:08:16,0.8559631360000001,0.34202575599999996,9.8255856,-0.044052124,0.06541443,-0.009063721,53.2310485,-48.41270425,-261.8631375,9.868795959329262,0.07938380388657447,271.57134344311237
11:05:08:17,0.87416077,0.34059143,9.823669,-0.055770874,0.08459473,-0.009063721,53.137207,-48.0751035,-261.675645,9.868365224066114,0.10172909991178836,271.31164258693195
11:05:08:18,0.77838135,0.31903076,9.878738,-0.05569458014285714,0.08398546785714286,-0.008759635114285715,53.0433655,-47.73750275,-261.4881525,9.914490537818775,0.10116385795897725,271.0519417307516
11:05:08:19,0.7735901,0.34536743,9.933807,-0.05561828628571428,0.08337620571428572,-0.008455549228571429,52.949524,-47.399902,-261.30066,9.969866690070225,0.10059861600616615,270.7922408745712
11:05:08:20,0.7625179375,0.33908271624999997,9.947572375,-0.05554199242857143,0.08276694357142858,-0.008151463342857143,52.949524,-47.67261818181818,-261.4779390909091,9.982581639608425,0.10003337405335505,271.0122089642446
11:05:08:21,0.751445775,0.33279800249999997,9.96133775,-0.05546569857142857,0.08215768142857144,-0.007847377457142857,52.949524,-47.94533436363636,-261.65521818181816,9.995296589146625,0.09946813210054395,271.2321770539181
11:05:08:22,0.7403736125,0.32651328874999996,9.975103125,-0.05538940471428572,0.0815484192857143,-0.007543291571428572,52.949524,-48.218050545454545,-261.83249727272727,10.008011538684825,0.09890289014773285,271.45214514359157
11:05:08:23,0.7293014499999999,0.320228575,9.988868499999999,-0.055313110857142855,0.08093915714285715,-0.007239205685714286,52.949524,-48.49076672727273,-262.0097763636364,10.020726488223023,0.09833764819492175,271.672113233265
11:05:08:24,0.7182292874999999,0.31394386125,10.002633874999999,-0.055236817,0.08032989500000001,-0.0069351198,52.949524,-48.76348290909091,-262.18705545454543,10.033441437761223,0.09777240624211064,271.8920813229385
11:05:08:25,0.7071571249999999,0.3076591475,10.01639925,-0.055160523142857146,0.07972063285714286,-0.0066310339142857146,52.949524,-49.036199090909086,-262.36433454545454,10.046156387299423,0.09720716428929953,272.11204941261195
11:05:08:26,0.6960849625,0.30137443375,10.030164625,-0.055084229285714284,0.07911137071428571,-0.006326948028571429,52.949524,-49.30891527272727,-262.5416136363636,10.058871336837623,0.09664192233648843,272.33201750228545
11:05:08:27,0.6850128,0.29508972,10.04393,-0.05500793542857143,0.07850210857142857,-0.006022862142857143,52.949524,-49.58163145454545,-262.7188927272727,10.071586286375823,0.09607668038367732,272.5519855919589
11:05:08:28,0.68022156,0.27114868,9.68959,-0.054931641571428574,0.07789284642857143,-0.005718776257142857,52.949524,-49.854347636363634,-262.8961718181818,9.71722065950211,0.09551143843086622,272.77195368163234
11:05:08:29,0.7831726,0.2591858,10.034363,-0.05485534771428572,0.07728358428571429,-0.005414690371428572,52.949524,-50.12706381818182,-263.07345090909087,10.068216198318419,0.09494619647805512,272.99192177130584
11:05:08:30,0.7759857,0.20172119,10.206741,-0.05477905385714286,0.07667432214285715,-0.005110604485714286,52.949524,-50.39978,-263.25073,10.238183778687532,0.09438095452524402,273.2118898609793
11:05:08:31,0.789395128,0.20746765,10.134914799999999,-0.05470276,0.07606506,-0.0048065186,53.700256,-48.599243,-261.30066,10.167810140417922,0.09381571257243292,271.15242730072356
11:05:08:32,0.802804556,0.21321411,10.063088599999999,0.03477478,-0.1252594,-0.015457153,53.3102414,-48.7493896,-261.750488,10.097436502148312,0.13091266627516912,271.5376899913729
11:05:08:33,0.816213984,0.21896057000000002,9.9912624,-0.07707214,-0.00062561035,-0.021850586,52.9202268,-48.8995362,-262.200316,10.027062863878703,0.08011213554158335,271.92295268202224
11:05:08:34,0.829623412,0.22470703,9.9194362,-0.00036621094,-0.06561279,-0.002670288,52.5302122,-49.0496828,-262.650144,9.956689225609093,0.06566812590625394,272.30821537267155
11:05:08:35,0.84303284,0.23045349,9.84761,-0.00569915772,-0.08905029,-0.0106658935,52.1401976,-49.1998294,-263.099972,9.886315587339483,0.09011290235676281,272.6934780633209
11:05:08:36,0.859787,0.26397705,9.864365,-0.0110321045,-0.11248779,-0.018661499,51.750183,-49.349976,-263.5498,9.905282147496894,0.11455767880727168,273.07874075397024
11:05:08:37,0.7999343999999999,0.22327423,9.907463499999999,-0.02647399925,-0.081062315,-0.021850585999999998,52.649943,-49.450175333333334,-263.8000466666667,9.942499225697373,0.09209170799756158,273.512684911302
11:05:08:38,0.7400818,0.18257141,9.950562,-0.041915894,-0.04963684,-0.025039673,53.549703,-49.55037466666666,-264.05029333333334,9.979716303897852,0.06962573718785149,273.9466290686338
11:05:08:39,0.69818115,0.155036925,9.9433825,-0.046173096,-0.02406311,-0.022918701,54.449463,-49.650574,-264.30054,9.969192721549948,0.056888091131841616,274.3805732259656
11:05:08:40,0.6562805,0.12750244,9.936203,-0.04937744,0.007888794,-0.022918701,53.249359,-49.575041999999996,-263.47504000000004,9.958669139202046,0.05500574067545529,273.33736452737173
11:05:08:41,0.67063904,0.14904785,10.003235,-0.04084778,0.015350342,-0.0037384033,52.049255,-49.49951,-262.64954,10.026798215222382,0.04379668697149152,272.29415582877783
11:05:08:42,0.678300476,0.147372435,10.0106569,-0.03909846871428571,0.015122550071428572,-0.004804338707142857,52.058696375000004,-49.462030625,-262.780860625,10.034717069678829,0.042642306215393874,272.41593143099044
11:05:08:43,0.685961912,0.14569702,10.0180788,-0.03734915742857143,0.014894758142857142,-0.0058702741142857146,52.068137750000005,-49.42455125,-262.91218125,10.042635924135276,0.04148792545929623,272.5377070332031
11:05:08:44,0.6936233479999999,0.144021605,10.0255007,-0.03559984614285714,0.014666966214285714,-0.006936209521428572,52.077579125,-49.387071875000004,-263.043501875,10.050554778591724,0.04033354470319858,272.6594826354157
11:05:08:45,0.7012847839999999,0.14234619,10.0329226,-0.03385053485714286,0.014439174285714285,-0.008002144928571429,52.0870205,-49.3495925,-263.1748225,10.058473633048171,0.039179163947100935,272.7812582376283
11:05:08:46,0.70894622,0.140670775,10.0403445,-0.03210122357142857,0.014211382357142857,-0.009068080335714285,52.096461875,-49.312113124999996,-263.306143125,10.066392487504618,0.03802478319100329,272.903033839841
11:05:08:47,0.716607656,0.13899535999999998,10.0477664,-0.030351912285714287,0.013983590428571429,-0.010134015742857144,52.10590325,-49.27463375,-263.43746375,10.074311341961065,0.036870402434905636,273.0248094420536
11:05:08:48,0.724269092,0.137319945,10.0551883,-0.028602601,0.0137557985,-0.011199951150000002,52.115344625,-49.237154375,-263.568784375,10.082230196417513,0.03571602167880799,273.14658504426626
11:05:08:49,0.7319305279999999,0.13564452999999999,10.0626102,-0.026853289714285716,0.013528006571428572,-0.012265886557142858,52.124786,-49.199675,-263.700105,10.090149050873961,0.03456164092271034,273.26836064647887
11:05:08:50,0.7395919639999999,0.133969115,10.070032099999999,-0.025103978428571427,0.013300214642857142,-0.013331821964285716,52.134227375,-49.162195624999995,-263.831425625,10.098067905330408,0.0334072601666127,273.3901362486915
11:05:08:51,0.7472534,0.1322937,10.077454,-0.023354667142857142,0.013072422714285714,-0.014397757371428573,52.14366875,-49.12471625,-263.96274625,10.105986759786855,0.03225287941051505,273.51191185090414
11:05:08:52,0.9196472,0.31185913,9.852402,-0.021605355857142856,0.012844630785714285,-0.015463692778571429,52.153110125,-49.087236875,-264.094066875,9.900143042352276,0.031098498654417404,273.63368745311675
11:05:08:53,0.8813324,0.28552246,9.612976,-0.01985604457142857,0.012616838857142857,-0.01652962818571429,52.1625515,-49.0497575,-264.2253875,9.657514040943985,0.029944117898319758,273.7554630553294
11:05:08:54,0.804718,0.19692993,9.988861,-0.018106733285714285,0.012389046928571429,-0.017595563592857147,52.171992875,-49.012278124999995,-264.356708125,10.023158012032676,0.028789737142222112,273.877238657542
11:05:08:55,0.816688525,0.194538115,10.004425,-0.016357422,0.012161255,-0.018661499,52.181434249999995,-48.97479875,-264.48802875,10.039606907852006,0.027635356386124462,273.99901425975463
11:05:08:56,0.82865905,0.1921463,10.019988999999999,-0.041915894,0.00044250488,-0.014389038,52.190875625,-48.937319375,-264.619349375,10.056055803671336,0.04431909740680087,274.1207898619673
11:05:08:57,0.840629575,0.189754485,10.035553,0.002822876,-0.0016937256,-0.006942749,52.200317,-48.89984,-264.75067,10.072504699490667,0.007683690454233067,274.2425654641799
11:05:08:58,0.8526001,0.18736267,10.051117,0.012413025,-0.0080871583,-0.0021438598499999998,53.250122,-48.150635,-263.25073,10.088953595309997,0.017078880038276237,272.86444618061
11:05:08:59,0.7520447,0.14186096,9.828461,0.022003174,-0.014480591,0.0026550293,52.049255,-48.750305,-263.40027,9.858211875958602,0.02647406962231941,272.88352720477826
11:05:08:60,0.77000429,0.1568260175,9.864971500000001,0.02305603,-0.016601562,0.005844116,52.1994016,-48.6001586,-263.460084,9.896284838266652,0.029005966145298455,272.94349064376735
11:05:08:61,0.78796388,0.17179107500000002,9.901482000000001,0.0238571165,-0.0056838984999999995,0.005313873125,52.3495482,-48.450012199999996,-263.519898,9.934357800574704,0.03122879811494816,273.00345408275643
11:05:08:62,0.80592347,0.1867561325,9.9379925,0.024658203,0.005233765000000001,0.00478363025,52.4996948,-48.2998658,-263.579712,9.972430762882755,0.033451630084597866,273.0634175217456
11:05:08:63,0.82388306,0.20172119,9.974503,0.0254592895,0.016151428500000002,0.004253387375,52.6498414,-48.149719399999995,-263.639526,10.010503725190805,0.03567446205424757,273.12338096073466
11:05:08:64,0.82865906,0.14904785,9.751846,0.026260376,0.027069092,0.0037231445,52.799988,-47.999573,-263.69934,9.788125025101882,0.03789729402389728,273.18334439972375
11:05:08:65,0.7712097,0.23524475,9.519608,-0.0014343262,0.016418457,0.012237549,50.849915,-48.30017,-263.69934,9.553692530505712,0.020527557756251872,272.86619833532285
11:05:08:66,0.883728,0.2591858,9.522003,-0.013153076,0.010025024,0.014373779,52.0500185,-49.349975,-263.24996999999996,9.566435782929535,0.021911413400399184,272.8514526592493
11:05:08:67,0.9866791,0.2807312,9.720718,-0.04298401,-0.011276245,0.010101318,53.250122,-50.39978,-262.8006,9.774697135387584,0.04557209060727025,272.8367069831757
11:05:08:68,1.0513306,0.28552246,9.888306,-0.05256653,-0.029388428,0.005844116,53.7750245,-49.949645000000004,-263.47504,9.948136240286258,0.06050680514102145,273.5074042457562
11:05:08:69,0.96273804,0.26397705,10.178009,-0.03552246,-0.05921936,-0.012268066,54.299927,-49.49951,-264.14948,10.226847785152115,0.07013760194532999,274.17810150833674
11:05:08:70,0.94358826,0.21847534,10.271378,0.0006866455,-0.04750061,-0.018661499,52.950287,-49.874877,-264.14948,10.316942197060229,0.05103950408597022,273.98560072635405
11:05:08:71,0.88612366,0.15144348,10.158859,0.033721924,-0.038986206,-0.018661499,51.600647,-50.250244,-264.14948,10.198557076877458,0.05482101751575953,273.79309994437136
11:05:08:72,0.79515076,0.13948059,9.902679,0.041168213,-0.019805908,-0.017593384,51.900482,-49.575041999999996,-264.45007499999997,9.93553073283739,0.04895531548146012,274.01783270427563
11:05:08:73,0.7544403,0.17298889,9.775787,0.017730713,0.013214111,-0.006942749,52.200317,-48.89984,-264.75067,9.806381432092905,0.023177417386018032,274.2425654641799
11:05:08:74,0.78556824,0.20651245,9.759018,-0.008895874,0.05050659,0.009048462,52.725219499999994,-48.7495415,-263.77563499999997,9.792762489513654,0.0520761641465404,273.37620674728646
11:05:08:75,0.84542847,0.20411682,9.833252,-0.029129028,0.066482544,0.016494751,53.250122,-48.599243,-262.8006,9.871639067024152,0.07443457354945161,272.5098480303931
11:05:08:76,0.8813324,0.24003601,9.897888,-0.04084778,0.040908813,0.017562866,53.025054999999995,-49.0493765,-263.8504,9.939947230540536,0.06041958601423321,273.55947254061886
11:05:08:77,0.9172516,0.24481201,10.0846405,-0.03552246,0.016418457,0.011169434,52.799988,-49.49951,-264.9002,10.129227879368845,0.04069603359779433,274.60909705084464
11:05:08:78,0.90049744,0.24241638,10.166046,-0.009963989,0.00044250488,0.009048462,53.025054999999995,-49.199675,-263.7001,10.208729236043773,0.013466683033560595,273.44144639392863
11:05:08:79,0.8909149,0.20890808,10.125336,0.027328491,-0.009155273,0.007980347,53.250122,-48.89984,-262.5,10.16660223761249,0.029905708188939766,272.2737957370126
11:05:08:80,0.8478241,0.20411682,9.948166,0.06034851,-0.019805908,0.007980347,52.5001525,-49.64981,-263.0249,9.98631444249097,0.06401486225217526,272.7721022857994
11:05:08:81,0.87893677,0.23045349,9.703964,0.06993103,-0.022994995,0.0026550293,51.750183,-50.39978,-263.5498,9.74641246664675,0.07366252732899398,273.2704088345862
11:05:08:82,0.8190918,0.23764038,9.61058,0.052886963,-0.028320312,-0.0005493164,52.0500185,-51.0749815,-263.475035,9.64834868065172,0.05999477206930636,273.3815854392672
11:05:08:83,0.7975464,0.21369934,9.672836,0.022003174,-0.030456543,0.0005187988,52.349854,-51.750183,-263.40027,9.70801235840609,0.03757671925248406,273.49276204394823
11:05:08:84,0.87176514,0.21847534,9.799728,-0.0014343262,-0.02619934,0.009048462,52.424622,-50.925445499999995,-263.10043499999995,9.840852341514497,0.02775495221846095,273.0644119760938
11:05:08:85,0.8885193,0.1897583,9.940979,-0.004638672,-0.028320312,0.005844116,52.49939,-50.100708,-262.8006,9.982411444001514,0.029286704176509585,272.6360619082394
11:05:08:86,0.85739136,0.18736267,10.036758,0.0006866455,-0.03152466,0.005844116,51.374817,-49.500274,-263.55057,10.075055129619699,0.03206913410087223,273.03951501786946
11:05:08:87,0.7328949,0.13468933,9.979294,0.026260376,-0.027267456,0.0026550293,50.250244,-48.89984,-264.30054,10.007076740412149,0.03794958082716027,273.44296812749957
11:05:08:88,0.7328949,0.13708496,9.897888,0.02519226,-0.003829956,0.010101318,50.775147000000004,-49.349975,-264.375305,9.92593139615866,0.02741085829022251,273.69373089592693
11:05:08:89,0.7688141,0.19213867,9.742264,0.0124053955,0.02281189,0.020767212,51.30005,-49.80011,-264.45007,9.774441172494937,0.03324986100928039,273.94449366435435
11:05:08:90,0.8119049,0.21369934,9.644104,-0.014221191,0.04411316,0.020767212,51.6746525,-48.899841499999994,-263.1752,9.680578440226412,0.05078868233078138,272.6233312439376
11:05:08:91,0.8478241,0.23524475,9.749451,-0.027008057,0.04624939,0.019699097,52.049255,-47.999573,-261.90033,9.789072509607045,0.057065713356644884,271.30216882352096
11:05:08:92,0.8214874,0.2807312,9.878738,-0.039794922,0.03878784,0.0069122314,52.4246215,-49.124908500000004,-262.42523,9.916809770670012,0.0559992079567098,272.08394026206196
11:05:08:93,0.7688141,0.24241638,10.017593,-0.03126526,0.030258179,0.005844116,52.799988,-50.250244,-262.95013,10.049975638542618,0.043900200125797796,272.86571170060296
11:05:08:94,0.7328949,0.17538452,9.94577,0.014541626,0.0057678223,0.010101318,52.574921,-49.5002745,-262.27493000000004,9.974278698592778,0.018621581193480247,272.0347715700723
11:05:08:95,0.67303467,0.15383911,9.861969,0.035842896,-0.017669678,0.017562866,52.349854,-48.750305,-261.59973,9.886105132748114,0.043650715646189074,271.20383143954155
11:05:08:96,0.6921997,0.18257141,9.754242,0.037979126,-0.042175293,0.020767212,52.950287,-48.899840999999995,-262.124635,9.780475946445216,0.06043547340438949,271.8537981460497
11:05:08:97,0.7759857,0.17778015,9.732681,0.026260376,-0.034713745,0.027145386,53.55072,-49.049377,-262.64954,9.76518504873817,0.05129837639414523,272.5037648525578
11:05:08:98,0.859787,0.18257141,9.62735,0.018798828,-0.017669678,0.027145386,52.125550000000004,-49.3499755,-262.950135,9.667390238715845,0.03744977217402349,272.5756284100645
11:05:08:99,0.9531555,0.19692993,9.648895,-0.0067596436,0.039855957,0.017562866,50.70038,-49.650574,-263.25073,9.69785860515274,0.04407543932984476,272.6474919675711
11:05:09:00,0.9172516,0.2232666,9.617767,-0.03340149,0.05795288,0.0037231445,51.450348500000004,-49.124908500000004,-263.400265,9.66398678282763,0.06699296708970562,272.8386321639322
11:05:09:01,0.79992676,0.1945343,9.680023,-0.05256653,0.04624939,-0.0048065186,52.200317,-48.599243,-263.5498,9.714966376461094,0.07018082909645017,273.02977236029324
11:05:09:02,0.65867615,0.10116577,9.876343,-0.057891846,0.024932861,-0.0037384033,52.349853499999995,-49.124908500000004,-263.1752,9.898799919043093,0.06314340068579208,272.79173748775275
11:05:09:03,0.59402466,0.07243347,10.029572,-0.036590576,0.0025634766,0.007980347,52.49939,-49.650574,-262.8006,10.047408939992856,0.03753834842572236,272.5537026152123
11:05:09:04,0.6347351,0.041305542,10.098999,-0.012084961,-0.029388428,0.0154418945,50.999449999999996,-50.025177,-262.274935,10.119010603659476,0.035329563943414806,271.83405294202817
11:05:09:05,0.7113495,0.09158325,10.051117,0.0124053955,-0.04536438,0.021820068,49.49951,-50.39978,-261.74927,10.076673982546016,0.05184531008510263,271.11440326884406
11:05:09:06,0.780777,0.12031555,9.979294,0.02519226,-0.040039062,0.025024414,49.49951,-50.39978,-261.74927,10.010514337122583,0.053516331580096554,271.11440326884406
11:05:09:07,0.859787,0.15144348,9.888306,0.022003174,-0.03152466,0.025024414,49.49951,-50.39978,-261.74927,9.926770087124991,0.04587117995248511,271.11440326884406
11:05:09:08,0.87416077,0.13468933,9.890701,0.009216309,-0.020874023,0.018630981,50.7743825,-49.7245785,-262.199405,9.930169411385883,0.029458082775536684,271.66354534436334
11:05:09:09,0.8669739,0.13468933,9.857193,-0.0110321045,-0.0016937256,0.013305664,52.049255,-49.049377,-262.64954,9.89616283203475,0.017367116357873337,272.2126874198827
11:05:09:10,0.8262634,0.12750244,9.809296,-0.027008057,0.016418457,0.011169434,51.899719000000005,-49.7245785,-263.09967,9.844859374008424,0.03352248691634399,272.7415481272344
11:05:09:11,0.8669739,0.15623474,9.914642,-0.044052124,0.028137207,0.011169434,51.750183,-50.39978,-263.5498,9.953701774989447,0.053451363897964115,273.2704088345862
11:05:09:12,0.84303284,0.19932556,9.996048,-0.046173096,0.035583496,0.010101318,52.349853499999995,-50.39978,-263.400265,10.03351437266583,0.05916229041496243,273.24114934778277
11:05:09:13,0.8262634,0.18017578,9.991257,-0.030197144,0.03665161,0.007980347,52.949524,-50.39978,-263.25073,10.026983143394984,0.04815489548933986,273.2118898609793
11:05:09:14,0.81669617,0.15144348,9.931412,-0.012084961,0.019607544,0.0069122314,52.874756,-49.199676499999995,-263.10042999999996,9.966086096129773,0.024047474025572894,272.8360522929954
11:05:09:15,0.8669739,0.20651245,9.818878,-0.0025024414,-0.013412476,0.005844116,52.799988,-47.999573,-262.95013,9.85924217747846,0.014842857448364381,272.4602147250115
11:05:09:16,0.82865906,0.24003601,9.773392,-0.0025024414,-0.019805908,0.0005187988,53.025054999999995,-49.575042999999994,-263.10042999999996,9.811395635152055,0.01997011158856603,272.93498777896247
11:05:09:17,0.8262634,0.21847534,9.720718,-0.0035705566,-0.010223389,0.0015869141,53.250122,-51.150513,-263.25073,9.758217107437796,0.010944626692578572,273.40976083291343
11:05:09:18,0.87654114,0.20172119,9.730301,-0.012084961,-0.018737793,-0.0037384033,52.349853499999995,-50.4005435,-262.125395,9.771784553458417,0.02260811420963325,272.01311244171575
11:05:09:19,0.9028778,0.2232666,9.919434,-0.024871826,-0.04750061,-0.014389038,51.449585,-49.650574,-261.00006,9.962941692932084,0.055515404110137036,270.616464050518
11:05:09:20,0.90527344,0.24720764,10.063095,-0.022750854,-0.048568726,-0.026107788,51.8997195,-49.725342,-261.67526,10.106755789939164,0.05965013912176011,271.3673386958941
11:05:09:21,0.859787,0.18257141,10.079849,-0.00036621094,-0.0059509277,-0.033569336,52.349854,-49.80011,-262.35046,10.118098727919163,0.03409469123520697,272.1182133412701
11:05:09:22,0.85739136,0.17538452,9.936203,0.019866943,0.018539429,-0.03996277,52.950287,-49.80011,-262.35046,9.974668402070682,0.048326274819027695,272.23499883839554
11:05:09:23,0.780777,0.18496704,9.806915,0.016677856,-0.00062561035,-0.043151855,53.55072,-49.80011,-262.35046,9.839685327633214,0.04626688728462061,272.3517843355209
11:05:09:24,0.70895386,0.15144348,9.799728,-0.0025024414,-0.025131226,-0.04208374,52.6504515,-49.575042999999994,-262.800595,9.826505969938014,0.04908036171027176,272.5709511116853
11:05:09:25,0.7137451,0.15144348,9.806915,-0.023803711,-0.032592773,-0.041030884,51.750183,-49.349976,-263.25073,9.834019982318193,0.0575537918040376,272.7901178878497
11:05:09:26,0.725708,0.14186096,9.981689,-0.025939941,-0.02406311,-0.033569336,51.599884,-48.9746095,-263.025665,10.009040509757023,0.048773088085915545,272.47692913353285
11:05:09:27,0.70895386,0.15383911,10.017593,-0.018478394,-0.025131226,-0.03463745,51.449585,-48.599243,-262.8006,10.043826539771755,0.046613115188590556,272.16374037921594
11:05:09:28,0.6778259,0.12031555,9.974503,-0.0014343262,-0.028320312,-0.03463745,51.599884,-49.3499755,-262.8006,9.998231537591616,0.04476438658049332,272.3282625666125
11:05:09:29,0.586853,0.09397888,9.929016,0.009216309,-0.038986206,-0.029312134,51.750183,-50.100708,-262.8006,9.946787783086108,0.049639357464534864,272.4927847540091
11:05:09:30,0.562912,0.10116577,9.850006,0.0124053955,-0.046432495,-0.019714355,51.84987366666667,-50.150553333333335,-262.65055333333333,9.866596304339186,0.051947340860745414,272.3762898944533
11:05:09:31,0.67303467,0.10595703,9.802124,0.002822876,-0.05496216,-0.011199951,51.949564333333335,-50.200398666666665,-262.50050666666664,9.825774141033591,0.05616267945156621,272.25979503489754
11:05:09:32,0.6754303,0.15383911,9.730301,-0.015289307,-0.05496216,-0.0037384033,52.049255,-50.250244,-262.35046,9.754928503711582,0.057171475401980844,272.1433001753417
11:05:09:33,0.6898041,0.12510681,9.759018,-0.03340149,-0.042175293,0.0026550293,52.799988,-50.549316,-263.40027,9.784166481341636,0.0538652397603483,273.354667633353
11:05:09:34,0.7831726,0.16342163,9.816483,-0.048309326,-0.032592773,0.005844116,52.4246215,-50.39978,-263.1752,9.849030634525999,0.0585681954837714,273.03805289949327
11:05:09:35,0.84542847,0.13708496,9.907471,-0.057891846,-0.025131226,0.004776001,52.049255,-50.250244,-262.95013,9.944421712698317,0.06329182047549899,272.7214381656335
11:05:09:36,0.8310547,0.21847534,9.921829,-0.05256653,-0.011276245,0.005844116,51.524352500000006,-50.7003785,-262.875365,9.958969529716477,0.054079085322908164,272.6338586232501
11:05:09:37,0.82865906,0.20172119,9.917038,-0.03552246,-0.022994995,0.007980347,50.99945,-51.150513,-262.8006,9.953643050142952,0.0430615942313105,272.54627908086667
11:05:09:38,0.7831726,0.19932556,9.929016,-0.018478394,-0.06561279,0.004776001,51.3748165,-50.0251765,-262.274935,9.96184966401903,0.06833227233127358,271.903110544349
11:05:09:39,0.7640228,0.19692993,9.816483,-0.008895874,-0.09223938,-0.0005493164,51.750183,-48.89984,-261.74927,9.848139455020863,0.09266898912535727,271.2599420078313
11:05:09:40,0.7137451,0.15144348,9.658463,-0.009963989,-0.09223938,0.0015869141,51.300049,-48.9746085,-262.57477,9.685983415109563,0.09278956081336574,271.9854416272722
11:05:09:41,0.71614075,0.12031555,9.62735,-0.036590576,-0.07093811,0.004776001,50.849915,-49.049377,-263.40027,9.65469841206251,0.07996184019853393,272.71094124671316
11:05:09:42,0.72810364,0.14425659,9.670441,-0.07281494,-0.03791809,0.007980347,51.449585,-49.049377,-264.29977499999995,9.698885194125182,0.0824832284448912,273.6923051240301
11:05:09:43,0.7712097,0.17778015,9.881134,-0.08772278,-0.025131226,0.011169434,52.049255,-49.049377,-265.19928,9.912778586706358,0.09193269770365618,274.67366900134704
11:05:09:44,0.7640228,0.20651245,9.969711,-0.081329346,-0.025131226,0.005844116,51.949564333333335,-48.99953133333333,-264.39972,10.001075724863094,0.08532405717540772,273.87396301967044
11:05:09:45,0.7544403,0.23524475,10.036758,-0.06428528,-0.03578186,-0.006942749,51.84987366666667,-48.94968566666667,-263.60015999999996,10.067821582111527,0.07389952972390962,273.0742570379938
11:05:09:46,0.7041626,0.10835266,9.943375,-0.051498413,-0.028320312,-0.011199951,51.750183,-48.89984,-262.8006,9.968866116905815,0.059829470294314936,272.2745510563172
11:05:09:47,0.7424774,0.12271118,9.900284,-0.038726807,-0.020874023,-0.0005493164,51.449585,-50.39978,-262.04987,9.928844545256197,0.04399763817669179,271.76705464006767
11:05:09:48,0.6778259,0.14186096,9.794937,-0.028076172,-0.03152466,-0.002670288,51.74942,-50.099945,-262.349705,9.819387115123424,0.04229900779323468,272.05800800958775
11:05:09:49,0.63713074,0.14665222,9.821274,-0.022750854,-0.062408447,-0.006942749,52.049255,-49.80011,-262.64954,9.843010994434573,0.06678785352411115,272.3489613791078
11:05:09:50,0.6323395,0.07722473,9.823669,-0.016357422,-0.09011841,-0.002670288,51.824951,-49.80011,-262.5,9.844302388881847,0.09162981781831243,272.1620183437837
11:05:09:51,0.69937134,0.05328369,9.785355,-0.027008057,-0.09437561,0.0015869141,51.600647,-49.80011,-262.35046,9.81046033062967,0.09817692805414177,271.9750753084596
11:05:09:52,0.7352905,0.07003784,9.881134,-0.03126526,-0.081588745,0.004776001,51.300558,-49.65006533333333,-262.25026333333335,9.908701556933588,0.08750457118970772,271.7945122025309
11:05:09:53,0.7113495,0.07722473,9.876343,-0.03552246,-0.07733154,0.0069122314,51.000469,-49.500020666666664,-262.15006666666665,9.902228679631815,0.08538027398732302,271.6139490966021
11:05:09:54,0.72810364,0.11552429,9.830856,-0.050445557,-0.06561279,0.0037231445,50.70038,-49.349976,-262.04987,9.858458828077403,0.08284717398675848,271.43338599067334
11:05:09:55,0.82388306,0.165802,9.900284,-0.067489624,-0.052825928,0.0037231445,51.449585,-48.89984,-263.5498,9.935889335153394,0.0857863032289563,272.94092992575855
11:05:09:56,0.9244385,0.161026,9.957748,-0.07388306,-0.022994995,-0.002670288,51.3748175,-49.199675,-263.475035,10.001862883706327,0.07742484606388682,272.9087283426177
11:05:09:57,0.88612366,0.15863037,10.010422,-0.07281494,-0.0027618408,-0.016525269,51.30005,-49.49951,-263.40027,10.050817248024268,0.07471765365247027,272.87652675947686
11:05:09:58,0.8334503,0.12510681,10.055908,-0.06535339,-0.007019043,-0.027175903,52.200317999999996,-49.49951,-262.875365,10.0911633036505,0.07112567927966212,272.54266961443307
11:05:09:59,0.7831726,0.0748291,10.113373,-0.046173096,-0.032592773,-0.025039673,53.100586,-49.49951,-262.35046,10.143927846388033,0.06181608908691712,272.2088124693892
11:05:09:60,0.82388306,0.09637451,10.132523,-0.023803711,-0.053894043,-0.022918701,52.72522,-49.274443500000004,-262.5,10.166419905171226,0.06321749270403541,272.23956835319456
11:05:09:61,0.859787,0.08441162,10.106186,0.0017547607,-0.060287476,-0.022918701,52.349854,-49.049377,-262.64954,10.143044635293487,0.06452073932536918,272.2703242369999
11:05:09:62,0.90766907,0.10116577,9.972107,0.014541626,-0.02619934,-0.022918701,52.149963666666665,-48.749796333333336,-262.8499366666667,10.013841204707779,0.03772441064731001,272.3721159785266
11:05:09:63,1.0106201,0.08441162,9.861969,0.0049591064,0.051574707,-0.027175903,51.950073333333336,-48.450215666666665,-263.0503333333333,9.913975532806,0.05850703241737508,272.4739077200533
11:05:09:64,0.9675293,0.12989807,9.917038,-0.019546509,0.12826538,-0.033569336,51.750183,-48.150635,-263.25073,9.964970102734489,0.13401855856601497,272.57569946158003
11:05:09:65,1.2428589,0.024551392,9.96492,-0.030197144,0.12719727,-0.060195923,52.200317,-48.89984,-262.04987,10.042157717470799,0.1439255437614587,271.6361570445713
11:05:09:66,0.95077515,0.20890808,9.897888,-0.029129028,0.12187195,-0.10493469,51.450348500000004,-49.275206999999995,-261.67526499999997,9.945642404203502,0.16343977984084349,271.2006318176692
11:05:09:67,0.9316101,0.17778015,9.864365,-0.023803711,0.152771,-0.113464355,50.70038,-49.650574,-261.30066,9.909853682743304,0.19178048637423345,270.7651065907671
11:05:09:68,0.8621826,0.12750244,9.766205,-0.036590576,0.15489197,-0.10920715,51.25020466666667,-49.00054933333333,-261.7502866666667,9.805017889324512,0.19301967317767163,271.18692451783164
11:05:09:69,0.91485596,-0.11192322,9.830856,-0.057891846,0.10696411,-0.113464355,51.800029333333335,-48.350524666666665,-262.1999133333333,9.873966676440563,0.16633384056452807,271.6087424448961
11:05:09:70,0.938797,-0.131073,9.842819,-0.079208374,0.113357544,-0.113464355,52.349854,-47.7005,-262.64954,9.888357083221612,0.1788800132742667,272.03056037196063
11:05:09:71,0.9244385,0.0030059814,10.003235,-0.08558655,0.14318848,-0.10281372,51.525117,-49.2752075,-262.349705,10.045860144429218,0.19595575869530169,271.8703286334603
11:05:09:72,0.85739136,0.05088806,10.063095,-0.07814026,0.17939758,-0.10493469,50.70038,-50.849915,-262.04987,10.099682693920549,0.22203756688479565,271.71009689496
11:05:09:73,0.8885193,0.043701172,10.058304,-0.05470276,0.16342163,-0.10600281,51.000215,-50.1747125,-262.20016499999997,10.097566820542593,0.20232552194760453,271.78670451262747
11:05:09:74,0.9818878,-0.011367798,9.751846,-0.028076172,0.14744568,-0.10813904,51.30005,-49.49951,-262.35046,9.801159792919215,0.18499338354913555,271.86331213029496
11:05:09:75,1.0704803,0.017364502,9.328064,-0.012084961,0.16874695,-0.115600586,51.14975,-48.6747735,-262.049865,9.389302827511411,0.20490259856872833,271.3968271302009
11:05:09:76,1.1542816,0.08918762,9.09343,-0.046173096,0.19432068,-0.13264465,50.99945,-47.850037,-261.74927,9.166830946873615,0.23976464427331673,270.9303421301069
11:05:09:77,1.2045593,0.10595703,8.97612,-0.10583496,0.21348572,-0.15180969,50.99945,-48.11248775,-261.74927,9.05720267267013,0.2825303052417848,270.977186828044
11:05:09:78,1.2524414000000001,0.09478251,9.086253,-0.17365519000000001,0.24437968,-0.18341573,50.99945,-48.3749385,-261.74927,9.172783790178912,0.35509607791176784,271.0240315259811
11:05:09:79,1.3003235,0.08360799,9.196386,-0.24147542,0.27527364,-0.21502177,50.99945,-48.63738925,-261.74927,9.288364907687694,0.4276618505817509,271.0708762239182
11:05:09:80,1.3482056,0.07243347,9.306519,-0.30929565,0.3061676,-0.24662781,50.99945,-48.89984,-261.74927,9.403946025196475,0.5002276232517339,271.1177209218553
11:05:09:81,1.1829987,0.08201599,9.550735,-0.33380127,0.26461792,-0.2775116,51.524352500000006,-48.8250725,-261.6745,9.624071466226878,0.5083882567224575,271.1318444213401
11:05:09:82,0.87416077,0.05088806,9.876343,-0.32954407,0.20603943,-0.29562378,52.049255,-48.750305,-261.59973,9.915084351638496,0.4883082633832631,271.14596792082483
11:05:09:83,0.6251526,-0.059249878,10.087036,-0.29652405,0.1101532,-0.28816223,52.4246215,-48.750305,-261.22512500000005,10.106563292565172,0.4278991826320955,270.85733704186043
11:05:09:84,0.5174103,-0.17176819,10.355179,-0.27095032,0.056900024,-0.2775116,52.799988,-48.750305,-260.85052,10.369520232473775,0.3920004805786123,270.56870616289604
11:05:09:85,0.5461426,-0.18614197,10.434189,-0.1953125,-0.051757812,-0.24128723,52.6250205,-48.60026033333333,-261.05041166666666,10.450130174320856,0.3147147456353932,270.70107743817533
11:05:09:86,0.64969255,-0.10414123749999998,10.30011375,-0.15377808,-0.095443726,-0.2263794,52.450053,-48.450215666666665,-261.25030333333336,10.32394244941717,0.28983587677444195,270.8334487134547
11:05:09:87,0.7532425,-0.022140504999999977,10.166038499999999,-0.13193893750000002,-0.083457947,-0.2090683025,52.2750855,-48.300171,-261.450195,10.197754724513484,0.2616484675183017,270.965819988734
11:05:09:88,0.85679245,0.05986022750000003,10.03196325,-0.110099795,-0.071472168,-0.191757205,52.100118,-48.15012633333333,-261.65008666666665,10.071566999609798,0.2334610582621614,271.0981912640133
11:05:09:89,0.9603424,0.14186096,9.897888,-0.08826065250000001,-0.059486389,-0.1744461075,51.9251505,-48.00008166666667,-261.84997833333335,9.945379274706113,0.20527364900602116,271.23056253929263
11:05:09:90,1.4535522,0.47705078,9.533966,-0.06642151,-0.04750061,-0.15713501,51.750183,-47.850037,-262.04987,9.65592559695752,0.17708623974988089,271.36293381457193
11:05:09:91,1.4439697,0.5273285,9.519608,-0.106903076,-0.007019043,-0.17738342,52.6504515,-47.1748355,-262.5,9.642927994913906,0.20722551076977475,271.8547631529791
11:05:09:92,1.3266602,0.4985962,9.462143,-0.13246155,0.03239441,-0.20614624,53.55072,-46.499634,-262.95013,9.567694372698549,0.2471674175408001,272.34659249138633
11:05:09:93,1.2141266,0.46269226,9.538757,-0.14950562,0.037719727,-0.22424316,52.5756835,-45.974732,-262.95013,9.626841259382044,0.27213912438920745,272.0694741581573
11:05:09:94,0.9818878,0.34536743,9.53157,-0.14205933,0.02281189,-0.22531128,51.600647,-45.44983,-262.95013,9.588232839183332,0.2673320191459665,271.7923558249282
11:05:09:95,0.91485596,0.32621765,9.433411,-0.12501526,-0.003829956,-0.21147156,52.6504515,-45.899964,-262.725065,9.483281208402502,0.24569026127354568,271.85416690086004
11:05:09:96,0.87893677,0.4172058,9.340042,-0.12606812,-0.015548706,-0.2029419,53.700256,-46.350098,-262.5,9.390579060259046,0.23941668261468088,271.91597797679185
11:05:09:97,0.87416077,0.5081787,9.272995,-0.1356659,-0.036849976,-0.19015503,53.775024,-46.275329,-262.950135,9.327960061715833,0.23647852458164456,272.3526315507321
11:05:09:98,0.8633804350000001,0.55247497,9.328064000000001,-0.15164185,-0.044311523,-0.19015503,53.849792,-46.20056,-263.40027,9.384314969691712,0.24721993685037405,272.7892851246723
11:05:09:99,0.8526001,0.59677124,9.383133,-0.20491028,-0.040039062,-0.19015503,53.849792,-47.1000665,-263.40027,9.440669877667588,0.28240092912350545,272.9445064790557
11:05:10:00,0.7185364,0.63027954,9.529175,-0.25283813,-0.019805908,-0.19442749,53.849792,-47.999573,-263.40027,9.576989247007255,0.31956445803828293,273.09972783343903
11:05:10:01,0.59402466,0.6494446,9.742264,-0.27841187,-0.017669678,-0.18910217,53.849792,-47.4746705,-262.5,9.781940064775151,0.33702376411201257,272.13977831835376
11:05:10:02,0.51023865,0.68055725,9.957748,-0.2848053,-0.020874023,-0.18057251,53.849792,-46.949768,-261.59973,9.994010550423958,0.33787011574271353,271.1798288032685
11:05:10:03,0.42404175,0.6733856,10.010422,-0.27520752,-0.013412476,-0.16992188,53.475189,-46.949768,-261.975095,10.042002200264369,0.32371672628972287,271.46827619170074
11:05:10:04,0.15350342,0.62550354,10.166046,-0.23686218,-0.011276245,-0.12411499,53.100586,-46.949768,-262.35046,10.186427698296407,0.26764785961847803,271.756723580133
11:05:10:05,0.11997986,0.6446533,10.197159,-0.20491028,-0.041107178,-0.078308105,54.075623,-47.100066999999996,-262.5,10.218220232275653,0.22318194873576383,272.1207497570472
11:05:10:06,0.20857239,0.7140808,10.175613,-0.18147278,-0.04750061,-0.05593872,55.05066,-47.250366,-262.64954,10.202769906087658,0.19574937605657625,272.48477593396143
11:05:10:07,0.34742737,0.8122406,9.914642,-0.104766846,-0.042175293,0.0026550293,53.549957500000005,-46.875,-262.64954,9.953922169571022,0.11296856439296475,272.1248019969064
11:05:10:08,0.41685486,0.8984375,9.761414,-0.090927124,-0.041107178,0.011169434,52.049255,-46.499634,-262.64954,9.8115320513724,0.10041064793096106,271.76482805985137
11:05:10:09,0.6347351,1.0947571,9.502838,-0.08558655,-0.048568726,0.020767212,52.124786,-46.049499499999996,-262.57477,9.586725812779692,0.10057462791588404,271.6307337094927
11:05:10:10,0.7927551,1.2001038,9.522003,-0.12394714,-0.060287476,0.0037231445,52.200317,-45.599365,-262.5,9.630018219679517,0.13788159805281508,271.49663935913406
11:05:10:11,0.8526001,1.1713715,9.569885,-0.13352966,-0.04963684,-0.006942749,53.6254885,-46.2745665,-262.725065,9.67893263923028,0.142626041621361,272.10962902784433
11:05:10:12,0.68740845,1.1426392,9.727905,-0.15483093,0.00044250488,-0.037826538,55.05066,-46.949768,-262.95013,9.818874192468963,0.15938525550470212,272.7226186965546
11:05:10:13,0.55332947,1.0827942,9.881134,-0.15483093,0.013214111,-0.04421997,55.05066,-46.724700999999996,-262.79983500000003,9.955673051475731,0.16156310024565051,272.5391085583368
11:05:10:14,0.48150635,1.0061798,10.065475,-0.12820435,0.023864746,-0.03463745,55.05066,-46.499634,-262.64954,10.127094012136125,0.1349282565034823,272.35559842011907
11:05:10:15,0.39530945,0.98223877,10.120544,-0.08772278,0.019607544,-0.019714355,54.524995000000004,-46.424866,-262.72506999999996,10.175778762261217,0.09202389747074594,272.3104684939409
11:05:10:16,0.38334656,0.98461914,9.957748,-0.053634644,0.007888794,-0.006942749,53.99933,-46.350098,-262.8006,10.013649418040467,0.054654458843338416,272.2653385677628
11:05:10:17,0.37376404,1.0301208,9.782974,-0.050445557,0.01109314,0.012237549,54.5997625,-46.350098,-262.8006,9.844157084528149,0.053080783543832985,272.3856953723023
11:05:10:18,0.48869324,1.0540619,9.636917,-0.07707214,0.023864746,0.031417847,55.200195,-46.350098,-262.8006,9.70670061538638,0.08658361262929333,272.50605217684176
11:05:10:19,0.60121155,1.0923615,9.672836,-0.11116028,0.051574707,0.038864136,55.5000305,-46.649933000000004,-262.57552999999996,9.752869590916905,0.12855729974933647,272.40153840409346
11:05:10:20,0.6323395,1.1378479,9.706345,-0.12606812,0.07713318,0.03781128,55.799866,-46.949768,-262.35046,9.79324687454675,0.1525529128941339,272.29702463134515
11:05:10:21,0.6538849,1.2144623,9.909866,-0.14631653,0.11122131,0.031417847,55.574798,-46.575164,-262.35046,10.005394958647324,0.1864558603516457,272.18697031340025
11:05:10:22,0.61079407,1.2024994,10.067871,-0.13459778,0.14212036,0.023956299,55.34973,-46.20056,-262.35046,10.15780983655377,0.19720208763914088,272.0769159954554
11:05:10:23,0.5916443,1.1618042,10.130127,-0.104766846,0.13146973,0.025024414,55.34973,-46.575164,-262.125395,10.21368224554637,0.16996059314765882,271.92412333851667
11:05:10:24,0.57966614,1.1665802,10.12294,-0.069610596,0.08566284,0.023956299,55.34973,-46.949768,-261.90033,10.20641153591675,0.11294981847757976,271.771330681578
11:05:10:25,0.45516968,1.125885,10.110977,-0.024871826,0.04197693,0.029281616,55.500029999999995,-45.899964,-262.20016499999997,10.183646319729752,0.05690415992149108,271.9139216711692
11:05:10:26,0.42643738,1.0899658,9.950562,0.0038909912,0.023864746,0.04525757,55.65033,-44.85016,-262.5,10.01915956555613,0.05131192411582217,272.0565126607604
11:05:10:27,0.3713684,1.0516663,9.929016,0.018798828,0.02067566,0.07295227,54.9751285,-45.674897,-262.950135,9.991460114684452,0.0781211402167306,272.4929040146909
11:05:10:28,0.41207886,1.0540619,9.943375,0.02519226,0.029205322,0.10171509,54.299927,-46.499634,-263.40027,10.007575224124748,0.10878216917647571,272.92929536862135
11:05:10:29,0.5293884,1.0827942,9.909866,0.031585693,0.047302246,0.11982727,55.1246635,-46.575165,-262.350465,9.982892341178692,0.13264137029821302,272.09710850590017
11:05:10:30,0.67063904,1.0756073,9.840424,0.020935059,0.07287598,0.12835693,55.9494,-46.650696,-261.30066,9.92172526759139,0.14907946416364257,271.264921643179
11:05:10:31,0.7520447,1.0756073,9.88591,0.006011963,0.10803223,0.13793945,55.649564999999996,-47.175598,-261.600495,9.97264853600644,0.17531228788704106,271.58347512953037
11:05:10:32,0.9699249,1.1067352,9.929016,-0.0025024414,0.12187195,0.13475037,55.34973,-47.7005,-261.90033,10.037478560017703,0.18170497138190755,271.90202861588176
11:05:10:33,1.0920258,1.0827942,10.063095,-0.005706787,0.12719727,0.123031616,55.874633,-47.9255675,-261.07483,10.179923605137924,0.1770550520287058,271.2553980851927
11:05:10:34,1.1638489,1.0803986,10.139709,0.002822876,0.13252258,0.09320068,56.399536,-48.150635,-260.24933,10.263308628390465,0.1620387903905425,270.6087675545037
11:05:10:35,1.235672,1.0732117,10.089432,0.007080078,0.117614746,0.07827759,56.9999695,-47.5502015,-260.54992500000003,10.22131629132104,0.14145931244474044,270.9188012678773
11:05:10:36,1.254837,0.95111084,10.072662,-0.009963989,0.039855957,0.025024414,57.600403,-46.949768,-260.85052,10.19498639002419,0.0481040505697947,271.22883498125094
11:05:10:37,1.3314514,0.7930908,10.094208,-0.015289307,0.0014953613,0.009048462,57.2250365,-46.949768,-260.47516,10.21248211723627,0.01782901226998374,270.7884457416201
11:05:10:38,1.5708618,0.72605896,10.321655,-0.069610596,-0.29890442,-0.07191467,56.84967,-46.949768,-260.0998,10.46572168305275,0.3152161276524736,270.34805650198916
11:05:10:39,1.2500458,0.74520874,11.018372,-0.08665466,-0.4427185,-0.12837219,56.700135,-47.624969,-261.000065,11.114066406975173,0.4690289111636528,271.30141311210343
11:05:10:40,1.3075104,0.36932373,11.794098,-0.0110321045,-0.3681488,-0.13264465,56.5506,-48.30017,-261.90033,11.872098849708642,0.3914713903272644,272.2547697222177
11:05:10:41,1.2285004,0.06524658,12.3615265,0.09869385,-0.25949097,-0.12944031,56.5506,-48.30017,-261.90033,12.422592634357938,0.3063181897835313,272.2547697222177
11:05:10:42,1.0273895,-0.26992798,12.596161,0.19244385,-0.17745972,-0.111328125,56.5506,-48.30017,-261.90033,12.640872684946167,0.2844653564870712,272.2547697222177
11:05:10:43,1.0513306,-0.21965027,12.718262,0.2829895,-0.09863281,-0.064453125,56.325532,-47.399902,-262.125395,12.763531273603375,0.30653824172688754,272.26815932394277
11:05:10:44,1.2045593,-0.10952759,12.806839,0.35968018,-0.014480591,-0.043151855,56.100464,-46.499634,-262.35046,12.863828534775667,0.3625487580870782,272.28154892566783
11:05:10:45,0.9818878,0.010192871,13.0295105,0.42573547,-0.0059509277,-0.04208374,55.725097000000005,-46.724700999999996,-261.75003000000004,13.066459023622977,0.4278517793921151,271.66474550346453
11:05:10:46,0.6778259,0.15623474,13.18512,0.5141449,-0.018737793,-0.03996277,55.34973,-46.949768,-261.1496,13.203455860459172,0.5160359542402,271.0479420812612
11:05:10:47,0.44319153,0.2232666,13.28569,0.6217346,-0.021942139,-0.010131836,56.0997,-47.325134,-261.00006,13.294954888341643,0.6222041661719939,271.1246868053614
11:05:10:48,0.720932,0.16342163,13.359909,0.7474365,-0.09863281,0.031417847,56.84967,-47.7005,-260.85052,13.380344467391595,0.7545706288021429,271.2014315294617
11:05:10:49,0.7472534,0.2591858,12.639252,0.8720856,-0.17852783,0.062301636,56.999970000000005,-47.775268499999996,-260.17532,12.66397473316483,0.8923491321563245,270.5970969032531
11:05:10:50,0.76641846,0.36453247,12.016754,0.9146881,-0.18811035,0.071899414,57.15027,-47.850037,-259.50012,12.04668659316864,0.9365945493073702,269.9927622770445
11:05:10:51,0.7233124,0.5632477,11.597778,0.9636841,-0.1678772,0.099594116,57.15027,-47.6249695,-260.09979,11.633953899549072,0.9832541822003461,270.5296911724158
11:05:10:52,0.83584595,0.73083496,11.219482,0.94664,-0.19024658,0.12835693,57.15027,-47.399902,-260.69946,11.274286431487075,0.9740618831884971,271.0666200677872
11:05:10:53,0.94358826,0.8194275,11.494827,0.8965759,-0.16255188,0.13687134,56.549835,-47.775268499999996,-260.47439499999996,11.562563210296197,0.9214147936004392,270.7909648789264
11:05:10:54,1.1375122,0.7044983,11.748611,0.8731384,-0.1252594,0.1304779,55.9494,-48.150635,-260.24933,11.824555479559168,0.8916754259433923,270.51530969006564
11:05:10:55,1.0585022,0.53930664,11.296097,0.8571625,0.018539429,0.11024475,56.399535,-49.2004395,-259.799965,11.358392755701042,0.8644218684973551,270.36844801264806
11:05:10:56,0.90766907,0.43156433,10.462921,0.7889862,0.2784729,0.097457886,56.84967,-50.250244,-259.3506,10.511081141528878,0.8423445965686721,270.2215863352305
11:05:10:57,0.75683594,0.5153656,9.670441,0.64624023,0.5011139,0.08999634,56.475067,-50.250244,-258.600625,9.713692988571342,0.8227034197431408,269.4232151438581
11:05:10:58,0.60121155,0.65182495,9.081467,0.44171143,0.6545105,0.08041382,56.100464,-50.250244,-257.85065,9.124657471126513,0.7936997949161178,268.6248439524857
11:05:10:59,0.5581207,0.7428131,9.059921,0.23397827,0.7567749,0.08148193,55.875397,-50.7003785,-258.300025,9.107438637923458,0.7962998085009991,269.09426998408117
11:05:10:60,0.27799988,0.93673706,9.845215,0.10295105,0.6811371,0.076156616,55.65033,-51.150513,-258.7494,9.89358472188329,0.6930703412014426,269.56369601567656
11:05:10:61,0.14631653,0.69493103,10.089432,0.10083008,0.47447205,0.085739136,56.175231999999994,-51.525116499999996,-257.84988999999996,10.114394482421186,0.49258667329317324,268.88254143803715
11:05:10:62,0.08885193,0.7188721,10.671219,0.15942383,0.2039032,0.12728882,56.700134,-51.89972,-256.95038,10.695774245354292,0.2884352895175993,268.2013868603978
11:05:10:63,0.18940735,0.62550354,11.01358,0.29789734,-0.12420654,0.19332886,56.400299000000004,-51.449585,-256.65054,11.032954012375223,0.37622617913529993,267.7643453253643
11:05:10:64,0.34742737,0.4938202,10.819656,0.47366333,-0.40542603,0.2561798,56.100464,-50.99945,-256.3507,10.836490212503731,0.6740588297146547,267.3273037903308
11:05:10:65,0.5844574,0.35494995,9.859589,0.62387085,-0.58651733,0.2987976,56.60044366666667,-51.099650000000004,-256.50024,9.883272492871011,0.9069164358615469,267.59592303449676
11:05:10:66,0.5293884,0.22566223,9.024002,0.69737244,-0.6238098,0.31263733,57.10042333333333,-51.19985,-256.64978,9.042333084780008,0.9865136019118653,267.86454227866267
11:05:10:67,0.54374695,0.07243347,8.080688,0.6920471,-0.50024414,0.34353638,57.600403,-51.30005,-256.79932,8.099285518275952,0.9204295913356186,268.13316152282863
11:05:10:68,0.71614075,0.017364502,7.2139893,0.66116333,-0.38305664,0.36590576,56.8504335,-51.6746525,-257.699585,7.249468995744085,0.8472050304300348,268.9093312405306
11:05:10:69,0.8382416,-0.08558655,6.5316467,0.46194458,0.007888794,0.41384888,56.100464,-52.049255,-258.59985,6.5857712267533515,0.620262785873379,269.6855009582325
11:05:10:70,0.8478241,-0.6482239,6.134201,0.25741577,0.24012756,0.43408203,56.5506,-52.799988,-256.3507,6.226348997403938,0.5588840062885745,267.7713399220502
11:05:10:71,0.40968323,-0.16937256,6.481369,0.045440674,0.38819885,0.47669983,55.875397500000005,-52.950287,-256.50024,6.496512258680436,0.6164462100758878,267.8034090171616
11:05:10:72,0.27320862,0.20411682,6.809372,-0.10902405,0.43293762,0.48841858,55.200195,-53.100586,-256.64978,6.817906838659004,0.6617204361200305,267.83547811227294
11:05:10:73,0.31629944,0.18257141,7.2139893,-0.20170593,0.40097046,0.48947144,55.5747975,-52.3506165,-257.32498,7.223227760219678,0.6641121009027392,268.41407265970633
11:05:10:74,0.5006561,0.03173828,7.6664886,-0.21875,0.35090637,0.48735046,55.9494,-51.600647,-258.00018,7.682884308826636,0.6391379458839762,268.9926672071397
11:05:10:75,0.58924866,-0.19093323,8.0256195,-0.19424438,0.07713318,0.4042511,56.174468,-51.600647,-258.37478999999996,8.049486806027467,0.45508170526808345,269.3988784574327
11:05:10:76,0.45516968,-0.33457947,7.996887,-0.15483093,-0.050689697,0.33288574,56.399536,-51.600647,-258.7494,8.016815112630812,0.37061432535988714,269.8050897077257
11:05:10:77,0.30433655,-0.42555237,7.975342,-0.12820435,-0.0741272,0.2892151,55.725098,-51.824951,-257.02439,7.992483692335101,0.32492548562212303,268.0542192151669
11:05:10:78,0.36418152,-0.33218384,8.114212,-0.10902405,-0.10395813,0.2561798,55.05066,-52.049255,-255.29938,8.129170355209114,0.29718954591226693,266.3033487226081
11:05:10:79,0.40489197,-0.10952759,8.423065,-0.07388306,-0.27120972,0.16563416,55.1254275,-51.9744875,-255.599975,8.433502107343466,0.32626384068166,266.5924329308293
11:05:10:80,0.5126343,0.22087097,8.605026,-0.005706787,-0.5673523,0.052719116,55.200195,-51.89972,-255.90057,8.623111408975374,0.5698249774491944,266.8815171390505
11:05:10:81,0.44319153,0.2519989,8.54277,0.042236328,-0.73139954,-0.04421997,55.799865499999996,-52.275085000000004,-256.425475,8.557969470076705,0.7339513609647005,267.58291761018836
11:05:10:82,0.33546448,-0.061645508,8.260254,0.05821228,-0.78359985,-0.11026001,56.399536,-52.65045,-256.95038,8.267292950568176,0.7934574117544186,268.28431808132615
11:05:10:83,0.20617676,-0.29388428,7.9226685,0.0049591064,-0.6738739,-0.12944031,55.874633,-51.599883,-256.65054,7.930797752262219,0.6862109148726743,267.6847621207577
11:05:10:84,0.06011963,-0.37527466,7.814926,-0.12501526,-0.4704132,-0.09854126,55.34973,-50.549316,-256.3507,7.824162180439862,0.49661632463048894,267.08520616018916
11:05:10:85,0.1439209,-0.2795105,7.968155,-0.27946472,-0.22114563,-0.05807495,54.8995965,-50.6996155,-256.50024,7.974354735594101,0.3610797961812289,267.16480132064146
11:05:10:86,0.26841736,-0.09275818,8.336868,-0.41583252,0.018539429,-0.048477173,54.449463,-50.849915,-256.64978,8.341703663432925,0.4190589832222528,267.2443964810937
11:05:10:87,0.36418152,0.019760132,8.619385,-0.5148926,0.23266602,-0.0740509,54.824829,-51.225281,-256.64978,8.627097798248908,0.5698520879914458,267.3932693591795
11:05:10:88,0.42643738,0.07003784,8.85881,-0.5766754,0.31575012,-0.11665344,55.200195,-51.600647,-256.64978,8.869344324931417,0.6677279987457527,267.54214223726524
11:05:10:89,0.23728943,0.03173828,9.021606,-0.61183167,0.27207947,-0.14222717,55.5747975,-50.8506775,-256.949615,9.024781903804827,0.6845391137814396,267.76519023190167
11:05:10:90,0.10322571,-0.05445862,9.313705,-0.6203613,0.22627258,-0.10813904,55.9494,-50.100708,-257.24945,9.314436221023918,0.6691348705378222,267.98823822653816
11:05:10:91,0.13195801,0.019760132,9.823669,-0.57881165,0.13465881,-0.0697937,56.7749015,-49.95040899999999,-256.424715,9.824575105355999,0.598353642794985,267.3444164111894
11:05:10:92,0.2013855,0.20651245,9.936203,-0.4690857,-0.03578186,-0.050613403,57.600403,-49.80011,-255.59998,9.940389004904398,0.47316324034395363,266.7005945958406
11:05:10:93,0.30433655,0.41481018,9.723114,-0.34552002,-0.18598938,-0.06552124,56.9999695,-49.575042999999994,-256.64979,9.73671577474117,0.39783057522609094,267.53804974982614
11:05:10:94,0.28996277,0.53211975,9.464539,-0.28053284,-0.28079224,-0.099609375,56.399536,-49.349976,-257.6996,9.483919459740637,0.4092248574446252,268.3755049038117
11:05:10:95,0.14871216,0.51776123,9.287369,-0.28585815,-0.30529785,-0.11772156,56.475068,-49.199676499999995,-257.24946,9.30297882078552,0.4344882332409919,267.9316331501555
11:05:10:96,0.17025757,0.45550537,9.304123,-0.32954407,-0.26800537,-0.10920715,56.5506,-49.049377,-256.79932,9.316822289888874,0.438579951698803,267.4877613964993
11:05:10:97,0.24687195,0.4172058,9.31131,-0.37854004,-0.19024658,-0.08683777,56.475068,-48.82431,-256.87485000000004,9.323920868140744,0.4324663239877423,267.5032652880166
11:05:10:98,0.45516968,0.4291687,9.380737,-0.43180847,-0.0975647,-0.05168152,56.399536,-48.599243,-256.95038,9.401573904076912,0.44569990459875725,267.51876917953393
11:05:10:99,0.9818878,0.615921,9.919434,-0.43606567,-0.12207031,-0.028244019,56.624603,-48.1498715,-256.50023999999996,9.986923110267039,0.45370932737306313,267.05311699059
11:05:11:00,1.4750977,0.79548645,10.228287,-0.37535095,-0.17427063,-0.03463745,56.84967,-47.7005,-256.0501,10.364678811764882,0.41528103868224214,266.5874648016461
11:05:11:01,1.7504272,0.81703186,10.371933,-0.31356812,-0.22966003,-0.090026855,56.324768000000006,-47.7005,-256.800075,10.550285806519362,0.39896557480705813,267.1976074389175
11:05:11:02,1.6714172,1.0277252,10.647278,-0.25390625,-0.25309753,-0.17738342,55.799866,-47.7005,-257.55005,10.826559164963486,0.3999895263279525,267.8077500761889
11:05:11:03,1.4990387,1.1091309,10.690369,-0.18147278,-0.29144287,-0.24874878,55.725098,-47.9255675,-257.250215,10.851786845197132,0.4239661211774518,267.5441951721735
11:05:11:04,1.3170776,1.0420837,10.434189,-0.11329651,-0.28718567,-0.29881287,55.65033,-48.150635,-256.95038,10.568487684146131,0.4296519981440397,267.2806402681581
11:05:11:05,1.0154114,1.0277252,10.20195,-0.08239746,-0.26481628,-0.32225037,55.875397,-47.9255675,-255.750275,10.303740252959845,0.425161504057725,266.13408301397294
11:05:11:06,0.60121155,1.1905212,9.936203,-0.06428528,-0.2658844,-0.31799316,56.100464,-47.7005,-254.55017,10.02531426503488,0.4194600829576326,264.9875257597878
11:05:11:07,0.5341797,1.1737671,9.778183,-0.08558655,-0.118881226,-0.3052063,56.999969500000006,-47.9255675,-255.000305,9.862856581053153,0.338539050917107,265.6532163110833
11:05:11:08,0.7759857,1.1737671,9.397507,-0.171875,0.07713318,-0.2817688,57.899475,-48.150635,-255.45044,9.502263984266902,0.3389457179776024,266.31890686237887
11:05:11:09,1.0106201,1.2503815,9.6345215,-0.2975769,0.12614441,-0.2540741,57.749939,-48.075103999999996,-254.850005,9.767743414731394,0.4111180753490025,265.69681540803884
11:05:11:10,1.5086212,1.3365784,10.513199,-0.40090942,0.12719727,-0.27218628,57.600403,-47.999573,-254.24957,10.704659404111698,0.5009918957033414,265.0747239536988
11:05:11:11,1.9012604,1.1378479,11.32962,-0.44352722,0.21136475,-0.34994507,57.900238,-46.949768,-254.100035,11.544253041948732,0.603202291475087,264.81066951738904
11:05:11:12,1.8581696,0.87449646,12.01915,-0.4371338,0.27954102,-0.46392822,58.200073,-45.899963,-253.9505,12.193338551988814,0.6960305555630794,264.54661508107927
11:05:11:13,1.3410187,0.63027954,12.718262,-0.37960815,0.34558105,-0.56726074,57.94982866666667,-45.650227666666666,-253.60056666666668,12.804287241113279,0.7650577473700091,264.1126494061894
11:05:11:14,0.7185364,0.22805786,13.079788,-0.2848053,0.4308014,-0.6088104,57.699584333333334,-45.40049233333333,-253.25063333333333,13.101494535761054,0.7983445423488595,263.6786837312996
11:05:11:15,0.2923584,-0.028121948,13.242584,-0.17082214,0.46488953,-0.5896301,57.44934,-45.150757,-252.9007,13.245840678305997,0.7700429425972363,263.24471805640974
11:05:11:16,-0.15774536,-0.09994507,13.369476,-0.032333374,0.49472046,-0.522522,57.3745725,-45.6756585,-253.200535,13.370780124218438,0.7202937047488583,263.6073932058423
11:05:11:17,-0.4450531,-0.11909485,13.489197,0.11148071,0.4861908,-0.4064026,57.299805,-46.20056,-253.50037,13.497062330371197,0.6434069598578368,263.9700683552749
11:05:11:18,-0.45941162,-0.1023407,13.395813,0.27233887,0.43400574,-0.24342346,58.0497745,-45.6001275,-253.50037,13.40407917711756,0.5672604545922412,264.0312571780469
11:05:11:19,-0.13140869,0.019760132,13.158798,0.47261047,0.37327576,-0.048477173,58.799744,-44.999695,-253.50037,13.159468967683619,0.6041899417064723,264.09244600081894
11:05:11:20,0.4001007,0.11791992,12.308853,0.6824646,0.22840881,0.10810852,58.0497745,-44.850159000000005,-253.50037,12.315918473799762,0.7277471860717611,263.90206373164426
11:05:11:21,0.69459534,0.48184204,10.999222,0.7474365,0.22520447,0.13687134,57.299805,-44.700623,-253.50037,11.031659849865978,0.7925352601327126,263.71168146246964
11:05:11:22,1.1231537,0.833786,10.019989,0.7069702,0.28912354,0.14859009,58.499908500000004,-45.149994,-252.825165,10.117156363709158,0.7781248613920388,263.40715757109484
11:05:11:23,1.5708618,1.1186981,9.287369,0.5855255,0.2507782,0.13475037,59.700012,-45.599365,-252.14996,9.485479174812617,0.6510664167046454,263.10263367972004
11:05:11:24,1.8174744,1.3317871,9.079071,0.40548706,0.05050659,0.031417847,59.549713,-45.599365,-251.999665,9.354485570966625,0.40982649081164474,262.9245424618865
11:05:11:25,2.068863,1.3365784,9.356796,0.24783325,-0.18917847,-0.11665344,59.399414,-45.599365,-251.84937,9.67554997494879,0.3328931335743304,262.746451244053
11:05:11:26,2.171814,1.1067352,9.749451,0.13917542,-0.39797974,-0.28604126,59.77478,-45.749663999999996,-252.224735,10.049548927932838,0.509487265203981,263.21750610778804
11:05:11:27,1.8916931,0.72843933,10.019989,0.05609131,-0.5034332,-0.4490204,60.150146,-45.899963,-252.6001,10.22297932122527,0.6769125065589467,263.68856097152315
11:05:11:28,1.6355133,0.36453247,10.041534,-0.022750854,-0.4981079,-0.56407166,59.249877999999995,-45.6748965,-252.0752,10.180382740806811,0.7528651399920804,262.94340087208514
11:05:11:29,1.3912964,0.09637451,9.917038,-0.114349365,-0.45762634,-0.635437,58.34961,-45.44983,-251.5503,10.01462113173907,0.7913771700691768,262.19824077264707
11:05:11:30,1.2931366,-0.018539429,9.888306,-0.171875,-0.43632507,-0.66207886,58.09987433333333,-44.700114666666664,-251.5503,9.97251931691903,0.8113377836600515,262.01609035185066
11:05:11:31,1.1829987,-0.3657074,10.156464,-0.35935974,-0.36921692,-0.7345123,57.850138666666666,-43.95039933333334,-251.5503,10.231665984086485,0.8972005771277926,261.83393993105426
11:05:11:32,1.0776672,-0.6841278,10.642487,-0.4509735,-0.30529785,-0.7749939,57.600403,-43.200684,-251.5503,10.718765180087567,0.9472061127094158,261.65178951025786
11:05:11:33,0.87416077,-1.1174774,11.147659,-0.4733429,-0.2190094,-0.7931061,57.899475,-43.649292,-250.65002,11.237580432263824,0.9492291104501485,260.9272742037085
11:05:11:34,0.61798096,-1.5077362,11.391876,-0.42967224,-0.114608765,-0.7749939,58.799743500000005,-43.274688499999996,-251.249695,11.507823761037052,0.893514939930303,261.6434887323584
11:05:11:35,-0.1194458,-2.0033417,10.800507,-0.2688141,0.10910034,-0.64289856,59.700012,-42.900085,-251.84937,10.98538104587845,0.705324367221918,262.3597032610082
11:05:11:36,-0.3756256,-2.1206512,10.12294,-0.24858093,0.36688232,-0.40853882,59.175110000000004,-41.8502805,-250.724795,10.349500970918202,0.6027429658944513,260.9920193617286
11:05:11:37,0.12237549,-1.9362946,9.78775,-0.23579407,0.46063232,-0.3009491,58.650208,-40.800476,-249.60022,9.978189344818123,0.5986245388108955,259.624335462449
11:05:11:38,0.39291382,-1.5771637,9.050339,-0.1633606,0.57354736,-0.17631531,58.3503725,-40.875244,-250.05035500000002,9.195132550510932,0.621876473534516,260.00170630770594
11:05:11:39,0.71614075,-1.36409,8.379959,-0.102645874,0.60549927,-0.0974884,58.050537,-40.950012,-250.50049,8.520405620837048,0.6218275722049617,260.3790771529629
11:05:11:40,1.0608978,-1.1869202,7.992111,-0.0973053,0.50323486,-0.033569336,58.8752745,-40.875244,-250.42496,8.149117862660589,0.5136541112916263,260.4811416980484
11:05:11:41,1.1853943,-1.0815735,7.917877,-0.11116028,0.4265442,-0.037826538,59.700012,-40.800476,-250.34943,8.078845033140798,0.44241090558482377,260.5832062431339
11:05:11:42,1.2955322,-0.8684845,8.068726,-0.13352966,0.117614746,-0.08895874,59.324646,-40.800476,-249.974825,8.21809030560343,0.19893983009630756,260.137633363536
11:05:11:43,1.2500458,-0.8612976,8.174057,-0.13034058,-0.0027618408,-0.10813904,58.94928,-40.800476,-249.60022,8.31382318173248,0.16938224975322105,259.6920604839381
11:05:11:44,1.1949768,-0.9187622,8.442215,-0.10902405,-0.22433472,-0.14434814,58.649445,-40.1252745,-249.67499,8.575726653696005,0.2881817058686073,259.5918662704473
11:05:11:45,1.1375122,-1.0480499,8.516434,-0.08879089,-0.30848694,-0.1560669,58.34961,-39.450073,-249.74976,8.655748995574841,0.3569382181458938,259.4916720569565
11:05:11:46,0.9100647,-1.0312958,8.284195,-0.016357422,-0.4150238,-0.15074158,58.34961,-39.225006500000006,-250.35019,8.397599394071424,0.441854437300139,260.0357876609239
11:05:11:47,0.87654114,-0.95228577,8.023224,0.019866943,-0.43206787,-0.09642029,58.34961,-38.99994,-250.95062,8.126948745503014,0.4431413003029466,260.5799032648913
11:05:11:48,0.97232056,-0.6913147,7.925064,0.015609741,-0.42674255,-0.05380249,58.649445,-40.049745,-250.80032,8.014359780414827,0.43040396829582056,260.6640510049066
11:05:11:49,1.0680847,-0.43753052,7.956192,-0.004638672,-0.38945007,-0.029312134,58.94928,-41.09955,-250.65002,8.03947940000903,0.3905791539503387,260.7481987449219
11:05:11:50,1.1016083,-0.23881531,8.054352,-0.02168274,-0.36175537,-0.028244019,58.649445,-40.049745,-250.05035,8.132844504773423,0.36350352618236986,259.94195231023457
11:05:11:51,1.2452545,-0.06881714,8.020828,-0.05256653,-0.29037476,-0.03036499,58.34961,-38.99994,-249.45068,8.117208656558732,0.29665261492021033,259.1357058755472
11:05:11:52,1.3266602,0.14425659,8.138153,-0.08558655,-0.17533875,-0.052749634,57.9750065,-38.625336000000004,-249.60022,8.246840091903776,0.20211694307899808,259.1400987548812
11:05:11:53,1.3793335,0.26875305,8.356018,-0.09625244,-0.15509033,-0.06765747,57.600403,-38.250732,-249.74976,8.473359777705097,0.19466657625864642,259.14449163421517
11:05:11:54,1.2787781,0.27593994,8.502075,-0.08665466,-0.072006226,-0.11665344,57.450103999999996,-38.8504025,-249.375155,8.60213319968668,0.162178764782299,258.84023277931516
11:05:11:55,1.1111755,0.21369934,8.353622,-0.060028076,0.007888794,-0.13264465,57.299805,-39.450073,-249.00055,8.429909781166147,0.14580879998360427,258.53597392441515
11:05:11:56,0.89331055,0.34776306,8.248276,-0.055770874,0.03239441,-0.13369751,57.8247075,-38.8504025,-249.00055,8.30379430482342,0.14844127581697777,258.5632589039828
11:05:11:57,0.7831726,0.5057831,8.269836,-0.07281494,0.033462524,-0.12837219,58.34961,-38.250732,-249.00055,8.322221057658368,0.15133134230902162,258.5905438835504
11:05:11:58,0.7735901,0.6614075,8.375183,-0.10050964,0.037719727,-0.11772156,57.59964,-38.250732,-248.10028,8.436799855831786,0.15932147132987987,257.5556013714598
11:05:11:59,0.6036072,0.68055725,8.351227,-0.13246155,0.066482544,-0.11026001,56.84967,-38.250732,-247.20001,8.400624514162526,0.184724824239501,256.5206588593691
11:05:11:60,0.51023865,0.71647644,8.308136,-0.15589905,0.09843445,-0.099609375,57.824707000000004,-37.725066,-247.724915,8.354567957921276,0.20956116607233227,257.16841527465584
11:05:11:61,0.3210907,0.84336853,8.454178,-0.2102356,0.14530945,-0.06765747,58.799744,-37.1994,-248.24982,8.502205323955948,0.2643697732598479,257.81617168994256
11:05:11:62,0.31629944,0.93434143,8.681641,-0.23899841,0.15916443,-0.0463562,58.724976,-36.899564999999996,-248.02474999999998,8.73750134171319,0.29086500827392936,257.5394083743406
11:05:11:63,0.49586487,1.0588531,9.201172,-0.31143188,0.09738159,0.043136597,58.650208,-36.59973,-247.79968,9.275161347936958,0.3291409363054114,257.2626450587387
11:05:11:64,0.562912,1.1067352,9.672836,-0.28053284,0.047302246,0.0665741,58.499909,-36.299895,-246.97494,9.752204315207873,0.29217852006251266,256.39145154777214
11:05:11:65,0.641922,1.0971527,9.907471,-0.22088623,0.02281189,0.095336914,58.34961,-36.00006,-246.1502,9.988683072209383,0.24166140796583221,255.5202580368056
11:05:11:66,0.68740845,1.1641846,9.9266205,-0.1676178,-0.010223389,0.11982727,58.2000735,-36.2251275,-246.52480500000001,10.018265853481271,0.2062978894587587,255.87901933114557
11:05:11:67,0.79992676,1.319809,10.079849,-0.13246155,-0.028320312,0.14326477,58.050537,-36.450195,-246.89941,10.197310159088332,0.19716210747334983,256.2377806254856
11:05:11:68,1.0225983,1.3940277,10.283356,-0.12181091,-0.030456543,0.1496582,58.250427333333334,-36.250305,-246.94976666666665,10.4276762096963,0.19535371927296122,256.3036097732128
11:05:11:69,1.10758975,1.4670562500000002,10.5084075,-0.080802916,0.0734100335,0.14220428499999999,58.45031766666666,-36.050415,-247.00012333333333,10.668222882585816,0.21077890922579517,256.3694389209401
11:05:11:70,1.1925812,1.5400848,10.733459,-0.039794922,0.17727661,0.13475037,58.650208,-35.850525,-247.05048,10.908769555475333,0.22620409917862913,256.43526806866737
11:05:11:71,0.9747162,1.5616302,10.786133,-0.030197144,0.20497131,0.13475037,57.299805,-34.64966,-245.39948,10.942094207499014,0.24714928210296247,254.37132577282375
11:05:11:72,0.7831726,1.4945984,10.798111,0.014541626,0.2507782,0.15498352,58.0497745,-34.799958000000004,-244.799805,10.929152980308874,0.29516276180025536,253.9853412978219
11:05:11:73,0.40968323,1.42276,10.819656,0.042236328,0.24224854,0.1965332,58.799744,-34.950256,-244.20013,10.920487275066037,0.3147912979059224,253.59935682282
11:05:11:74,0.31629944,1.3820648,11.0494995,0.082717896,0.22094727,0.25938416,58.574676999999994,-34.950256,-244.574735,11.140089211835047,0.3506281347781796,253.90827032011344
11:05:11:75,0.40249634,1.3892517,11.116531,0.1381073,0.19750977,0.3254242,58.34961,-34.950256,-244.94934,11.210231267178536,0.4049501765703812,254.2171838174069
11:05:11:76,0.61079407,1.3413696,11.03035,0.19351196,0.14318848,0.37443542,58.34961,-34.950256,-244.94934,11.12838545891772,0.4451423404017286,254.2171838174069
11:05:11:77,0.81430054,1.3533325,10.898666,0.23078918,0.049438477,0.40745544,58.34961,-34.950256,-244.94934,11.012516279422998,0.4708797555626548,254.2171838174069
11:05:11:78,1.096817,1.3605194,11.085419,0.24464417,-0.07519531,0.4244995,58.2748415,-35.625458,-244.725035,11.222323064981971,0.495686322245465,254.07866061012402
11:05:11:79,1.4439697,1.2647552,11.490036,0.27020264,-0.1998291,0.41384888,58.200073,-36.30066,-244.50073,11.649273861135772,0.5331154015286315,253.94013740284112
11:05:11:80,1.5421295,1.1618042,12.047882,0.30429077,-0.32659912,0.3776245,57.675171500000005,-36.30066,-243.52569499999998,12.201615183238319,0.5846880543436964,252.8814601081794
11:05:11:81,1.5971985,0.98223877,12.557846,0.3799286,-0.4224701,0.33714294,57.15027,-36.30066,-242.55066,12.697059982901921,0.6606754789484877,251.82278281351768
11:05:11:82,1.5684662,0.77633667,12.869095,0.48112488,-0.45762634,0.30519104,57.2250375,-35.850525000000005,-242.47512999999998,12.987547534648492,0.7307835439534005,251.7029067658542
11:05:11:83,1.4296112,0.6853485,12.943314,0.5748749,-0.4459076,0.27642822,57.299805,-35.40039,-242.3996,13.040048621543315,0.7782848445139725,251.58303071819077
11:05:11:84,1.2811737,0.5225525,12.639252,0.65156555,-0.3670807,0.26896667,57.3745725,-33.97522,-242.47512999999998,12.714761432458415,0.7947508891660212,251.48037235114708
11:05:11:85,1.1303406,0.49142456,11.894653,0.6643524,-0.24777222,0.26896667,57.44934,-32.55005,-242.55066,11.95834177302976,0.7583523283806658,251.3777139841034
11:05:11:86,1.0321655,0.4985962,11.253006,0.57699585,-0.12313843,0.2796173,56.774902,-33.22525,-241.35055499999999,11.31123812082836,0.6528959475439998,250.15646443111626
11:05:11:87,1.0632935,0.58000183,11.025558,0.4076233,-0.03791809,0.28601074,56.100464,-33.90045,-240.15045,11.091885520564555,0.4993963152121626,248.9352148781291
11:05:11:88,1.206955,0.5488739,11.317657,0.22013855,0.030258179,0.2700348,55.950165,-34.049987,-241.125485,11.395058705411536,0.34970749463449957,249.86287675943697
11:05:11:89,1.3577881,0.35734558,11.885071,0.073135376,0.08885193,0.22955322,55.799866,-34.199524,-242.10052,11.96771478031993,0.2567842080419952,250.79053864074484
11:05:11:90,1.3912964,0.12271118,12.359131,0.0017547607,0.14637756,0.18055725,56.175233000000006,-33.674622,-241.35055499999999,12.43780056044922,0.23244437997987896,250.08039093155998
11:05:11:91,1.1997681,-0.26515198,12.691925,-0.00036621094,0.1889801,0.13475037,56.5506,-33.14972,-240.60059,12.751263046141762,0.23210186238287595,249.37024322237508
11:05:11:92,0.77838135,-0.6553955,12.699112,0.05076599,0.20176697,0.11557007,56.325532,-33.3000185,-241.500095,12.739814220623158,0.23799902731621803,250.20778076938075
11:05:11:93,0.562912,-0.9858093,12.505173,0.13917542,0.21987915,0.13368225,56.100464,-33.450317,-242.3996,12.556593553015862,0.29255355424598994,251.0453183163864
11:05:11:94,0.4360199,-1.1821289,11.95929,0.24783325,0.26249695,0.18693542,54.450226,-32.7003475,-241.275025,12.025479590998074,0.4065351397055873,249.4993747365081
11:05:11:95,0.49346924,-1.28508,11.236252,0.35435486,0.31575012,0.24659729,52.799988,-31.950378,-240.15045,11.32026066416892,0.5348604757513665,247.95343115662976
11:05:11:96,0.6131897,-1.2228241,10.2211,0.40016174,0.34451294,0.2753601,53.025054999999995,-32.025146500000005,-240.07492000000002,10.312234752842222,0.5955180674499148,247.93808782426316
11:05:11:97,0.7759857,-1.1246643,9.143707,0.44277954,0.41056824,0.33927917,53.250122,-32.099915,-239.99939,9.245236681456456,0.6926256968487368,247.92274449189654
11:05:11:98,0.87654114,-1.0025635,8.3177185,0.3799286,0.37860107,0.35525513,53.250122,-30.825042500000002,-239.99939,8.423651167212885,0.643343390961951,247.76413396839115
11:05:11:99,1.1351166,-0.9546814,7.8077545,0.24676514,0.26782227,0.33927917,53.250122,-29.55017,-239.99939,7.947385519991576,0.4977269912543034,247.6055234448858
11:05:12:00,1.4032745,-0.89482117,7.834091,0.07952881,0.103759766,0.29133606,53.549957,-30.750274,-240.674595,8.008924150278327,0.31932369238237623,248.47267861583998
11:05:12:01,1.4918518,-0.98101807,8.308136,-0.08453369,-0.09437561,0.2050476,53.849792,-31.950378,-241.3498,8.497831608200162,0.24103364655924742,249.33983378679417
11:05:12:02,1.2572327,-1.2778931,9.201172,-0.20063782,-0.24884033,0.1177063,52.424621,-30.8998105,-241.04996,9.37417788451664,0.3406344341204384,248.6180325386036
11:05:12:03,0.85739136,-1.6466064,9.826065,-0.23686218,-0.3159485,0.071899414,50.99945,-29.849243,-240.75012,9.999899297740383,0.40136849988526235,247.89623129041303
11:05:12:04,0.5365753,-1.8213806,10.252228,-0.2379303,-0.33085632,0.062301636,51.3000485,-30.7495115,-240.450285,10.426577545225973,0.41225990102156296,247.77922439828754
11:05:12:05,0.25645447,-1.897995,10.482071,-0.18891907,-0.32766724,0.0793457,51.600647,-31.64978,-240.15045,10.65560727336781,0.3864608327985806,247.66221750616205
11:05:12:06,0.17025757,-1.9362946,10.35997,-0.114349365,-0.23924255,0.12728882,50.7003785,-30.8998105,-240.37552,10.54074014569335,0.2941346948311235,247.60278137719712
11:05:12:07,0.22772217,-1.8644714,10.015198,-0.044052124,-0.11248779,0.19760132,49.80011,-30.149841,-240.60059,10.189813637517197,0.23160391662003016,247.5433452482322
11:05:12:08,0.42643738,-1.6346283,9.744659,0.017730713,-0.00062561035,0.25724792,50.250245,-29.8500055,-240.525055,9.89000695371359,0.2578589961900201,247.5251702993371
11:05:12:09,0.6610718,-1.3975983,9.2035675,0.061416626,0.08459473,0.28494263,50.70038,-29.55017,-240.44952,9.332521184544635,0.30351371086709356,247.50699535044197
11:05:12:10,0.69459534,-1.1557922,8.892319,0.07206726,0.11868286,0.27642822,50.475312,-29.6997065,-240.82488999999998,8.993978846633539,0.3093410286949593,247.84381735588764
11:05:12:11,0.6562805,-0.99298096,8.516434,0.07525635,0.16661072,0.26257324,50.250244,-29.849243,-241.20026,8.599207135425846,0.3199489906193462,248.1806393613333
11:05:12:12,0.646698,-0.8612976,8.2387085,0.06248474,0.22094727,0.2508545,50.250244,-29.324340499999998,-240.97519,8.308812767594539,0.3400735494324286,247.8997649293933
11:05:12:13,0.5413666,-0.71525574,7.9514008,0.05076599,0.25183105,0.23806763,50.250244,-28.799438,-240.75012,8.001839991616874,0.35024599917572147,247.61889049745332
11:05:12:14,0.36897278,-0.6362457,7.6688843,0.041168213,0.26142883,0.2284851,50.175476,-28.350067,-241.04996,7.704072683323796,0.3496359475780376,247.8439724371528
11:05:12:15,0.24926758,-0.4566803,7.453415,0.018798828,0.24864197,0.21144104,50.100708,-27.900696,-241.3498,7.4715518056875,0.326930479729156,248.06905437685225
11:05:12:16,0.19659424,-0.3585205,7.271454,-0.020614624,0.18365479,0.20185852,50.175476,-27.975464000000002,-240.29998999999998,7.282940993735802,0.27368030018471534,247.07166707649586
11:05:12:17,0.270813,-0.25556946,7.1277924,-0.055770874,0.1335907,0.19546509,50.250244,-28.050232,-239.25018,7.137512166529136,0.24323541461292594,246.07427977613946
11:05:12:18,0.45277405,-0.16699219,7.1756744,-0.0973053,0.07499695,0.18374634,50.025177,-27.2254945,-240.450285,7.19188388579027,0.2210329870874212,247.10563096591878
11:05:12:19,0.69459534,-0.004180908,7.2618713,-0.13459778,0.015350342,0.15605164,49.80011,-26.400757,-241.65039,7.295015760374004,0.20665021105030346,248.1369821556981
11:05:12:20,0.7616272,0.06764221,7.441437,-0.171875,-0.048568726,0.11024475,49.500275,-26.475524999999998,-240.82488999999998,7.4806173599056995,0.2098900704483792,247.2810194129899
11:05:12:21,0.646698,0.12510681,7.647339,-0.20916748,-0.09223938,0.062301636,49.20044,-26.550293,-239.99939,7.675653965495928,0.23694014383512832,246.42505667028172
11:05:12:22,0.4767151,0.026947021,7.8795776,-0.22940063,-0.10183716,0.044189453,48.9753725,-26.9248965,-240.224455,7.894031073091273,0.25484929656112787,246.64046946484763
11:05:12:23,0.2995453,0.014968872,8.34166,-0.27734375,-0.12313843,0.016494751,48.750305,-27.2995,-240.44952,8.347049958487192,0.3038991698203195,246.85588225941353
11:05:12:24,0.22053528,-0.09037781,9.004852,-0.28266907,-0.1359253,0.014373779,48.899840999999995,-26.249695,-239.624785,9.008005522876253,0.31398104375502633,245.97011725705357
11:05:12:25,0.37376404,-0.13346863,9.656067,-0.22940063,-0.11781311,0.021820068,49.049377,-25.19989,-238.80005,9.664219748188687,0.25880628527876526,245.08435225469358
11:05:12:26,0.51023865,-0.0736084,9.962524,-0.12927246,-0.067733765,0.017562866,48.1498715,-24.749755999999998,-239.250185,9.975853152842637,0.14699553087648884,245.3014040132569
11:05:12:27,0.5413666,0.08680725,9.993652,-0.023803711,-0.028320312,0.009048462,47.250366,-24.299622,-239.70032,10.008680911656247,0.038085842431464074,245.51845577182021
11:05:12:28,0.52459717,0.21369934,9.699173,0.04649353,0.03878784,-0.005874634,46.725463000000005,-24.299622,-239.47525000000002,9.715699999620071,0.060833018898953685,245.198612893032
11:05:12:29,0.5772705,0.32382202,9.225113,0.06993103,0.14105225,-0.006942749,46.20056,-24.299622,-239.25018,9.248827590217916,0.15758898422986425,244.87877001424377
11:05:12:30,0.6155853,0.4219818,8.822891,0.055023193,0.26461792,-0.009063721,46.60034066666667,-24.499512,-238.95009,8.854401137230475,0.270429928801173,244.6823775401309
11:05:12:31,0.6347351,0.59198,8.549957,0.03265381,0.314682,-0.010131836,47.00012133333333,-24.699402,-238.65,8.59389863039011,0.3165338631682983,244.48598506601797
11:05:12:32,0.7328949,0.7787323,8.722336,-0.069610596,0.33706665,-0.0463562,47.399902,-24.899292,-238.34991,8.78764497612445,0.34728728582563706,244.2895925919051
11:05:12:33,0.79515076,0.8122406,9.194,-0.1207428,0.26782227,-0.08683777,46.650696,-21.600342,-239.39972,9.263996735935141,0.30634684649652555,244.85728118207916
11:05:12:34,0.82865906,0.754776,9.811691,-0.14631653,0.15596008,-0.13690186,46.575165,-22.5753785,-238.949585,9.875507223802586,0.2539176889787454,244.4929941705231
11:05:12:35,0.74487305,0.5728302,10.479675,-0.14524841,0.029205322,-0.18164062,46.499634,-23.550415,-238.49945,10.521718414986848,0.23440001338446245,244.12870715896705
11:05:12:36,0.6131897,0.41001892,11.197937,-0.12181091,-0.08905029,-0.20826721,46.875,-23.175049,-238.124845,11.22220611907093,0.25718297514667704,243.79931081454814
11:05:12:37,0.6610718,0.3022766,11.894653,-0.057891846,-0.15402222,-0.20614624,47.250366,-22.799683,-237.75024,11.916843418375178,0.263762359621599,243.46991447012923
11:05:12:38,0.780777,0.14904785,12.296875,0.031585693,-0.1401825,-0.20082092,46.350098,-21.67511,-238.124845,12.322538811095043,0.24693689723932843,243.5647557946943
11:05:12:39,0.91485596,0.0460968,12.402222,0.1381073,-0.042175293,-0.18057251,45.44983,-20.550537,-238.49945,12.436004055957916,0.23121161956230907,243.65959711925933
11:05:12:40,1.1829987,0.06764221,12.028732,0.22653198,0.08778381,-0.16459656,45.300293499999995,-20.7000735,-238.42468,12.086953914059546,0.29345316973014635,243.57130410707356
11:05:12:41,1.2524414,0.21847534,11.499603,0.25209045,0.21136475,-0.17631531,45.150757,-20.84961,-238.34991,11.569667674234688,0.3732448808278033,243.4830110948878
11:05:12:42,1.1853943,0.3214264,10.958527,0.22227478,0.32107544,-0.19229126,45.6756585,-20.549774499999998,-238.649745,11.027138730732394,0.4352831775610328,243.84950442138512
11:05:12:43,1.120758,0.48902893,10.592209,0.14770508,0.36262512,-0.2071991,46.20056,-20.249939,-238.94958,10.66255782111506,0.4429957509430884,244.21599774788245
11:05:12:44,1.0632935,0.5776062,10.637695,0.042236328,0.31575012,-0.24235535,44.924926,-19.950104000000003,-238.874815,10.706296133698418,0.4002726088012525,243.88326077457947
11:05:12:45,0.9292145,0.55366516,11.133301,-0.03552246,0.18579102,-0.2785797,43.649292,-19.650269,-238.80005,11.185721963870238,0.3367295614126891,243.55052380127646
11:05:12:46,0.7831726,0.31903076,11.84198,-0.04724121,0.017486572,-0.29455566,43.649292,-19.650269,-238.20038,11.872136718704722,0.2988319744615875,242.96260772970749
11:05:12:47,0.93400574,0.03173828,12.328003,0.03477478,-0.12953186,-0.2828369,43.649292,-19.650269,-237.60071,12.363374620579096,0.31302475953304076,242.37469165813852
11:05:12:48,1.1829987,-0.1023407,12.25618,0.15835571,-0.2424469,-0.26686096,44.3244935,-19.5755005,-237.900545,12.313566004024917,0.3937915720039418,242.78573411071267
11:05:12:49,1.4367981,0.04849243,11.832397,0.25315857,-0.34577942,-0.27537537,44.999695,-19.500732,-238.20038,11.919411019909495,0.509395978844178,243.1967765632868
11:05:12:50,1.6833954,0.18736267,11.288925,0.26594543,-0.4373932,-0.31373596,44.5495605,-19.5755005,-239.400485,11.41528591400477,0.6003915686793465,244.29673418904542
11:05:12:51,1.922821,0.27593994,10.807678,0.19351196,-0.48320007,-0.36805725,44.099426,-19.650269,-240.60059,10.980860039186922,0.6374914317766232,245.3966918148041
11:05:12:52,2.1358948,0.29031372,10.479675,0.031585693,-0.44804382,-0.44050598,43.1243895,-19.4999695,-239.85062,10.699061489603295,0.6291156007112231,244.47693445835586
11:05:12:53,2.1981506,0.22087097,10.582626,-0.19424438,-0.3170166,-0.5267792,42.149353,-19.34967,-239.10065,10.810764223751487,0.64476874101478,243.55717710190766
11:05:12:54,1.9563293,0.010192871,10.944153,-0.42648315,-0.11248779,-0.6119995,41.949463,-18.799845,-239.40023,11.117635230212706,0.7543770729106609,243.77536903891829
11:05:12:55,1.5325623,-0.41838074,11.616928,-0.61076355,0.11442566,-0.6769867,41.749573,-18.25002,-239.69981,11.725050354014186,0.9189321724980186,243.9935609759289
11:05:12:56,0.7903595,-1.1270599,12.560242,-0.69493103,0.4265442,-0.68444824,41.549683,-17.700195,-239.99939,12.635450575899235,1.0645837140636703,244.21175291293952
11:05:12:57,0.3282776,-1.4526672,12.780502,-0.6682892,0.5096283,-0.6674042,40.35034,-17.100525,-238.80005,12.866982534713475,1.0732007385271265,242.7880593715303
11:05:12:58,0.17025757,-1.5795593,12.708679,-0.5425873,0.6087036,-0.5970917,40.500385333333334,-16.900126333333333,-239.10014,12.807596072151862,1.0106629255014454,243.09440591735128
11:05:12:59,0.10322571,-1.7256165,12.447708,-0.35403442,0.6097717,-0.49801636,40.65043066666667,-16.699727666666668,-239.40023,12.56717320265545,0.8632393593281507,243.40075246317224
11:05:12:60,0.21334839,-1.6944885,11.844376,-0.14738464,0.5234833,-0.4021454,40.800476,-16.499329,-239.70032,11.966873093733545,0.6763711408893638,243.70709900899323
11:05:12:61,0.43362427,-1.5532227,10.975281,0.033721924,0.39031982,-0.3254547,41.1750795,-15.224457000000001,-239.849855,11.09312056151421,0.5093206178775647,243.8378459112932
11:05:12:62,0.7352905,-1.3377533,10.098999,0.1572876,0.23905945,-0.28071594,41.549683,-13.949585,-239.99939,10.213717090905353,0.40086188234620923,243.96859281359318
11:05:12:63,0.9747162,-1.1964874,9.344833,0.21160889,0.11442566,-0.26579285,40.425110000000004,-15.074920500000001,-239.624785,9.47140736991025,0.3584932260232963,243.4828860416009
11:05:12:64,1.1135712,-1.1318512,8.842041,0.20523071,0.03239441,-0.26472473,39.300537,-16.200256,-239.25018,8.983474661960809,0.3365237358640919,242.9971792696086
11:05:12:65,1.2093353,-1.1294556,8.569107,0.16474915,-0.018737793,-0.26472473,39.300537,-15.975189,-240.00015000000002,8.727414084231736,0.3123660832833908,243.72094727807436
11:05:12:66,1.1375122,-1.1462097,8.729523,0.117874146,-0.060287476,-0.27537537,39.300537,-15.750122,-240.75012,8.877629328207611,0.30554948610710636,244.44471528654012
11:05:12:67,1.0513306,-1.1533966,8.913864,0.10722351,-0.10395813,-0.27005005,38.775634499999995,-15.750122,-241.124725,9.049452533600247,0.30859553365986925,244.73063413102375
11:05:12:68,1.151886,-1.1079102,8.901901,0.11680603,-0.11035156,-0.26046753,38.250732,-15.750122,-241.49933,9.044232846519435,0.30604648278177515,245.01655297550735
11:05:12:69,1.2213135,-0.96424866,8.715149,0.17007446,-0.11035156,-0.23809814,38.325501,-16.4253235,-240.82488999999998,8.852977139685557,0.31271954369719973,244.40910434235752
11:05:12:70,1.2715912,-0.720047,8.447006,0.19670105,-0.11354065,-0.23277283,38.40027,-17.100525,-240.15045,8.572474685069793,0.3252168086980344,243.80165570920767
11:05:12:71,1.2883453,-0.4925995,8.030411,0.20309448,-0.13697815,-0.23916626,37.200165,-16.2750245,-240.82488999999998,8.148005198105444,0.34236074732112687,244.2288893350743
11:05:12:72,1.2285004,-0.29388428,7.88916,0.18391418,-0.15934753,-0.2551422,36.00006,-15.449524,-241.49933,7.9896449676084655,0.35258134259063295,244.65612296094096
11:05:12:73,1.1423035,-0.21965027,7.774231,0.1572876,-0.14550781,-0.2743225,36.074828499999995,-14.9246215,-242.32483,7.8607742092356485,0.34808726763701964,245.4501840353248
11:05:12:74,1.0680847,-0.13346863,7.700012,0.12426758,-0.10183716,-0.28816223,36.149597,-14.399719,-243.15033,7.774882867394992,0.3299253088116989,246.24424510970863
11:05:12:75,0.8981018,0.010192871,7.623398,0.09336853,-0.04536438,-0.29881287,35.3248595,-14.324950999999999,-243.60046499999999,7.676124530268282,0.31633011340177875,246.56646375151303
11:05:12:76,0.90049744,0.15144348,7.7095947,0.07739258,-0.007019043,-0.3020172,34.500122,-14.250183,-244.0506,7.763483831718152,0.3118545614537845,246.88868239331745
11:05:12:77,0.87893677,0.38128662,7.67128,0.08911133,0.040908813,-0.3201294,34.725189,-14.7003175,-243.97507000000002,7.730876158020452,0.33480918873262405,246.87250066855705
11:05:12:78,0.7544403,0.5009918,7.379181,0.11680603,0.11228943,-0.3488922,34.950256,-15.150452,-243.89954,7.434546736734684,0.3846795185019938,246.85631894379662
11:05:12:79,0.59402466,0.58958435,7.0463867,0.11999512,0.11868286,-0.35954285,35.475158,-14.5500185,-244.200135,7.095917173163025,0.3971844798928031,247.19326179501758
11:05:12:80,0.38334656,0.65182495,6.658539,0.11148071,0.12719727,-0.38191223,36.00006,-13.949585,-244.50073,6.701341057208426,0.41768893404198526,247.53020464623853
11:05:12:81,0.25645447,0.7044983,6.565155,0.06781006,0.11975098,-0.39256287,35.700225,-14.39971925,-244.200135,6.607824674120136,0.41598570690686104,247.21619726898757
11:05:12:82,0.009841919,0.8553467,6.58432,-0.05470276,0.078201294,-0.38616943,35.40039,-14.8498535,-243.89954,6.639652453477553,0.3977872081922908,246.9021898917366
11:05:12:83,-0.10507202,0.9295654,6.7734528,-0.13778687,0.047302246,-0.3712616,35.40039,-13.87481675,-244.42444,6.837747786814887,0.39882063594503414,247.36615769313494
11:05:12:84,-0.1816864,0.9056244,7.1469574,-0.20916748,0.012161255,-0.34249878,35.40039,-12.89978,-244.94934,7.206397545184076,0.4015026091001325,247.83012549453326
11:05:12:85,-0.17929077,0.967865,7.482132,-0.2379303,0.0014953613,-0.32757568,34.0499875,-13.500213500000001,-244.42444,7.546602354957905,0.404868978672076,247.15778739785446
11:05:12:86,-0.18408203,1.0181427,7.88916,-0.30184937,-0.036849976,-0.28390503,32.699585,-14.100647,-243.89954,7.956717052712897,0.4160204669963947,246.48544930117566
11:05:12:87,-0.17449951,1.0277252,8.475739,-0.31889343,-0.062408447,-0.27005005,32.474517500000005,-13.650512500000001,-243.97507000000002,8.539603079875919,0.42251019331978157,246.50562698235734
11:05:12:88,-0.15055847,1.0181427,8.772614,-0.3252716,-0.114608765,-0.24449158,32.24945,-13.200378,-244.0506,8.832782053432997,0.42274450377536743,246.52580466353902
11:05:12:89,-0.05000305,0.95350647,9.457352,-0.30503845,-0.12846375,-0.21359253,31.724548000000002,-13.2751465,-244.125365,9.505429066867269,0.39392024562627637,246.53631961328387
11:05:12:90,-0.030853271,1.0133514,9.608185,-0.2741394,-0.12420654,-0.1795044,31.199646,-13.349915,-244.20013,9.661524309260852,0.3504304564824404,246.5468345630287
11:05:12:91,-0.13380432,1.101944,9.802124,-0.2421875,-0.105026245,-0.1486206,31.724548000000002,-12.6747135,-244.875335,9.864776687110695,0.3029412154848033,247.24829680135122
11:05:12:92,-0.23435974,1.1450348,9.821274,-0.2230072,-0.07093811,-0.10813904,32.24945,-11.999512,-245.55054,9.890573904684192,0.25779542019658475,247.9497590396737
11:05:12:93,-0.31576538,1.180954,9.912247,-0.2336731,-0.04324341,-0.059127808,32.099914,-12.075043,-245.10040500000002,9.98734202449939,0.24488611200091148,247.48825704829048
11:05:12:94,-0.318161,1.1761627,10.039139,-0.25604248,-0.020874023,-0.0048065186,31.950378,-12.150574,-244.65027,10.112808560440236,0.25693691642464905,247.02675505690726
11:05:12:95,-0.24154663,1.2815094,10.446167,-0.27841187,-0.017669678,0.051651,31.800079,-12.375641,-245.17517,10.52725111834242,0.28371325784763846,247.5385874800544
11:05:12:96,-0.239151,1.2120819,10.884293,-0.27627563,-0.0027618408,0.099594116,31.64978,-12.600708,-245.70007,10.954185037827214,0.29369174220315236,248.0504199032015
11:05:12:97,-0.29901123,1.1522217,11.5858,-0.24751282,0.014282227,0.15711975,30.5252075,-12.075042499999999,-244.95010000000002,11.646792871929037,0.29351864321111604,247.142520817608
11:05:12:98,-0.26309204,1.1115265,11.715088,-0.17507935,0.039855957,0.22636414,29.400635,-11.549377,-244.20013,11.770641249713528,0.2889325180431374,246.2346217320145
11:05:12:99,-0.030853271,1.2096863,11.973663,-0.07493591,0.05050659,0.28175354,30.1506045,-11.699676499999999,-244.95010000000002,12.034654066748578,0.29589079665222406,247.0767717824042
11:05:13:00,0.07688904,1.2623596,11.870712,0.04437256,0.03878784,0.31903076,30.900574,-11.849976,-245.70007,11.937892069839142,0.32442880026131593,247.91892183279387
11:05:13:01,0.19898987,1.259964,11.705505,0.14875793,-0.0059509277,0.354187,30.225372,-11.550140500000001,-245.475005,11.774801635470707,0.3842040684940433,247.59937657839657
11:05:13:02,0.4192505,1.2551727,11.576218,0.21374512,-0.08691406,0.37869263,29.55017,-11.250305,-245.24994,11.651611591196282,0.4434513932392307,247.27983132399928
11:05:13:03,0.67303467,1.259964,11.626495,0.24890137,-0.19238281,0.39466858,29.8500055,-11.174774,-244.950105,11.713917830228407,0.5047041961491794,247.01531912493795
11:05:13:04,0.87893677,1.1737671,11.86113,0.24569702,-0.22219849,0.38827515,30.149841,-11.099243,-244.65027,11.95142936755267,0.5103888583253782,246.7508069258766
11:05:13:05,0.9771118,1.1306763,12.229843,0.23825073,-0.278656,0.34672546,28.8002015,-11.32431,-246.07544000000001,12.320805013055354,0.5046098703887435,248.0183669763032
11:05:13:06,0.99147034,0.9750519,12.55545,0.25422668,-0.24990845,0.31477356,27.450562,-11.549377,-247.50061,12.632223254253121,0.4755710591281796,249.28592702672984
11:05:13:07,0.938797,0.8050537,12.605728,0.28085327,-0.15190125,0.29559326,28.5751345,-10.949707,-247.20001,12.666247655761223,0.4351182878007807,249.0902560915236
11:05:13:08,0.91485596,0.7356262,12.272934,0.30003357,-0.02406311,0.28814697,29.699707,-10.350037,-246.89941,12.328950332531555,0.4166867561010284,248.89458515631736
11:05:13:09,0.8669739,0.8697052,11.952118,0.28511047,0.06222534,0.2753601,28.8749695,-10.0502015,-247.499845,12.015038725035897,0.4012270650314439,249.38291008620376
11:05:13:10,0.7975464,0.8673096,11.695938,0.24357605,0.09950256,0.2551117,28.050232,-9.750366,-248.10028,11.755138106472808,0.36648605847568894,249.8712350160902
11:05:13:11,0.6778259,0.7691498,11.636078,0.212677,0.11122131,0.24978638,28.7254335,-10.4248045,-248.17505,11.681153649688666,0.346402831629045,250.0511278011425
11:05:13:12,0.59402466,0.6901398,11.657623,0.14237976,0.13998413,0.2476654,29.400635,-11.099243,-248.24982,11.693131840972338,0.31812843800370083,250.23102058619486
11:05:13:13,0.56770325,0.61831665,11.827621,0.07632446,0.16767883,0.24978638,28.5003665,-11.174774,-248.17505,11.857369901431296,0.3103785573424248,250.0575805779709
11:05:13:14,0.5413666,0.53930664,11.832397,0.029449463,0.1762085,0.2434082,27.600098,-11.250305,-248.10028,11.857046352829723,0.301934195099658,249.8841405697469
11:05:13:15,0.40489197,0.08680725,11.954514,-0.004638672,0.16448975,0.23487854,27.600098,-11.250305,-248.10028,11.961683743613147,0.2867861985617817,249.8841405697469
11:05:13:16,0.40489197,-0.09275818,12.055069,-0.0025024414,0.11975098,0.24978638,27.600098,-11.250305,-248.10028,12.0622232686221,0.2770194849779077,249.8841405697469
11:05:13:17,0.25645447,-0.6147003,12.186752,0.06248474,0.09950256,0.27322388,27.750397,-11.174774,-249.150085,12.20493956001041,0.2974161911895107,250.93971608477477
11:05:13:18,0.19180298,-0.9044037,11.911407,0.17326355,0.10803223,0.3222351,27.900696,-11.099243,-250.19989,11.947231945323551,0.381479593359049,251.99529159980267
11:05:13:19,0.3091278,-1.1127014,11.312866,0.30003357,0.13891602,0.37443542,27.900696,-11.099243,-250.19989,11.371657818288888,0.49951945656817187,251.99529159980267
11:05:13:20,0.5413666,-1.0695953,10.608963,0.4044342,0.14530945,0.41064453,27.900696,-11.099243,-250.19989,10.676479187295156,0.5943995191854242,251.99529159980267
11:05:13:21,0.6969757,-0.9283447,9.751846,0.46728516,0.10482788,0.41171265,27.3750305,-11.174774,-250.27466,9.820697501507954,0.6315469985294384,252.01579416038663
11:05:13:22,0.7544403,-0.9474945,8.964157,0.46089172,0.05795288,0.38827515,26.849365,-11.250305,-250.34943,9.045608697840258,0.6054232453188226,252.03629672097063
11:05:13:23,0.74487305,-0.9474945,8.281799,0.38311768,0.004699707,0.36058044,26.0993955,-10.874939000000001,-251.249695,8.369036764439953,0.5261363869616527,252.83734718277856
11:05:13:24,0.6323395,-0.95228577,8.008865,0.23825073,-0.048568726,0.32862854,25.349426,-10.499573,-252.14996,8.090032139567167,0.40880196769747523,253.63839764458652
11:05:13:25,0.5988159,-0.9834137,8.042389,0.15408325,-0.07307434,0.31477356,25.6500245,-11.024474999999999,-252.97469999999998,8.124389442583455,0.35799986197214057,254.51119023864038
11:05:13:26,0.5413666,-1.119873,8.427841,-0.090927124,-0.11035156,0.27749634,25.950623,-11.549377,-253.79944,8.519137119040025,0.3121689084241744,255.38398283269424
11:05:13:27,0.4767151,-1.2515564,9.05513,-0.20596313,-0.107162476,0.26150513,25.800323499999998,-11.699676499999999,-254.024505,9.153634798584056,0.3496992138941184,255.5993695338604
11:05:13:28,0.33306885,-1.3497162,9.510025,-0.26029968,-0.08265686,0.2561798,25.650024,-11.849976,-254.24957,9.611100050462891,0.37445449635596845,255.81475623502655
11:05:13:29,0.22772217,-1.4454956,9.9266205,-0.2741394,-0.060287476,0.2657776,25.274658,-11.849976,-253.4996,10.033898019580882,0.3865549418343666,255.03209260926616
11:05:13:30,0.2301178,-1.411972,10.120544,-0.24325562,-0.04324341,0.28494263,24.899292,-11.849976,-252.74963,10.221156000501942,0.3771413416231763,254.24942898350574
11:05:13:31,0.31629944,-1.4167633,10.077454,-0.21768188,-0.022994995,0.2977295,24.2996215,-12.225342,-253.4996,10.181470557148765,0.3695362307617947,254.95596005077942
11:05:13:32,0.44558716,-1.2587433,9.7925415,-0.15377808,0.029205322,0.32009888,23.699951,-12.600708,-254.24957,9.883160002836847,0.3563199990161434,255.66249111805308
11:05:13:33,0.562912,-1.1557922,9.617767,-0.08558655,0.068618774,0.33181763,23.625183,-12.1505735,-254.699705,9.703307044282061,0.3494803760799488,256.08194065606153
11:05:13:34,0.81430054,-0.7918701,8.913864,-0.008895874,0.09098816,0.31263733,23.550415,-11.700439,-255.14984,8.985939852637246,0.3257300752831067,256.50139019407
11:05:13:35,0.84303284,-0.5907593,8.399124,0.0124053955,0.10270691,0.26896667,23.625183,-11.925506500000001,-255.22461,8.461972872045322,0.2881764611659815,256.5931058137543
11:05:13:36,0.72810364,-0.49978638,8.013657,0.0049591064,0.11975098,0.22209167,23.699951,-12.150574,-255.29938,8.062172154566271,0.2523679849557701,256.68482143343863
11:05:13:37,0.46235657,-0.4351349,7.640152,-0.020614624,0.15170288,0.18055725,23.1002805,-12.000275,-254.924775,7.666488020086131,0.2367269461859344,256.25105822403367
11:05:13:38,0.30433655,-0.39683533,7.501297,-0.07281494,0.17514038,0.14752197,22.50061,-11.849976,-254.55017,7.5179489022612485,0.2402892003949177,255.8172950146287
11:05:13:39,0.052947998,-0.33937073,7.5467834,-0.118621826,0.16874695,0.11982727,23.3253475,-11.699676499999999,-255.300135,7.5545956655130455,0.23854820345902772,256.6314780625478
11:05:13:40,-0.20562744,-0.32739258,7.75029,-0.14738464,0.115478516,0.107040405,24.150085,-11.549377,-256.0501,7.759926779913584,0.21567375377652212,257.44566111046686
11:05:13:41,-0.31336975,-0.48062134,7.9537964,-0.14524841,0.08352661,0.107040405,23.925018,-11.8499755,-256.800075,7.97446390958862,0.1988251580866572,258.18455499621865
11:05:13:42,-0.29901123,-0.49978638,8.186035,-0.09944153,-0.051757812,0.13154602,23.699951,-12.150574,-257.55005,8.206726702073404,0.1728347313754057,258.92344888197044
11:05:13:43,-0.1194458,-0.43273926,8.219559,-0.05895996,-0.15296936,0.14112854,23.0247495,-11.3250735,-257.39975000000004,8.231809079465096,0.21631728267649536,258.67765114343274
11:05:13:44,0.03378296,-0.34176636,8.253067,-0.032333374,-0.2275238,0.14007568,22.349548,-10.499573,-257.24945,8.260209467059719,0.26913513848646053,258.431853404895
11:05:13:45,0.26602173,-0.16937256,8.432632,-0.034454346,-0.27227783,0.12408447,22.5746155,-11.4746095,-257.47452499999997,8.438526949197778,0.30119640496356775,258.7187288638156
11:05:13:46,0.4647522,-0.12388611,8.645721,-0.051498413,-0.25202942,0.09320068,22.799683,-12.449646,-257.6996,8.65908967418035,0.27360058815638055,259.00560432273625
11:05:13:47,0.48390198,-0.09037781,8.992874,-0.06642151,-0.1678772,0.048461914,22.799683,-12.224578999999999,-257.17469,9.006337327385886,0.1869308117434456,258.4726856683201
11:05:13:48,0.2803955,-0.059249878,9.404678,-0.06109619,-0.06880188,0.011169434,22.799683,-11.999512,-256.64978,9.409043546936493,0.09268872304617674,257.9397670139039
11:05:13:49,0.08885193,-0.17895508,9.577072,-0.017410278,0.029205322,0.004776001,22.049713500000003,-12.224578999999999,-257.92465000000004,9.579155895970507,0.034334804480482616,259.1553895629462
11:05:13:50,-0.10986328,-0.29388428,9.61058,0.04437256,0.08885193,0.019699097,21.299744,-12.449646,-259.19952,9.61569996655072,0.10125040231176323,260.3710121119885
11:05:13:51,-0.18408203,-0.17416382,9.541153,0.10934448,0.10270691,0.054855347,21.900177,-11.7744445,-259.64966000000004,9.544517787681833,0.15973112959817476,260.8390331855604
11:05:13:52,-0.12184143,-0.008972168,9.402283,0.17326355,0.09950256,0.08894348,22.50061,-11.099243,-260.0998,9.403076701056525,0.21870518932953215,261.30705425913237
11:05:13:53,0.09124756,0.18496704,9.186813,0.22013855,0.07287598,0.10810852,22.425079,-11.9247435,-260.02503,9.189127924893707,0.25585023305374044,261.26383366386256
11:05:13:54,0.30673218,0.4004364,9.079071,0.23078918,0.045181274,0.11024475,22.349548,-12.750244,-259.95026,9.093072317084777,0.2597285083079984,261.22061306859274
11:05:13:55,0.5413666,0.5297241,9.07428,0.2361145,-0.03791809,0.099594116,21.2249755,-12.975311000000001,-260.099795,9.105835652817174,0.2590498535056902,261.28929293374983
11:05:13:56,0.68740845,0.5488739,9.237091,0.17433167,-0.14337158,0.04525757,20.100403,-13.200378,-260.24933,9.278881563933963,0.23020683907953343,261.357972798907
11:05:13:57,0.76641846,0.4650879,9.735077,0.09336853,-0.17320251,0.012237549,20.60038266666667,-12.950134,-260.3993733333333,9.776268623891438,0.19714601053581685,261.53493641622157
11:05:13:58,0.8981018,0.39326477,10.352783,0.030517578,-0.16680908,-0.015457153,21.100362333333333,-12.69989,-260.5494166666667,10.399103801173224,0.17028069566541562,261.71190003353615
11:05:13:59,1.1734314,0.2519989,11.032745,0.002822876,-0.11781311,-0.045288086,21.600342,-12.449646,-260.69946,11.097833434104702,0.12624938910872746,261.88886365085074
11:05:13:60,1.3170776,0.15623474,11.633682,0.011352539,-0.050689697,-0.0974884,21.450043,-12.974548500000001,-260.47439499999996,11.709041787248376,0.11046408311418843,261.67853988183106
11:05:13:61,1.333847,0.09877014,12.01915,0.047561646,0.010025024,-0.16246033,21.299744,-13.499451,-260.24933,12.093339906017055,0.1695758535291472,261.4682161128114
11:05:13:62,1.1255493,-0.020935059,12.028732,0.10189819,0.08139038,-0.22212219,19.94934,-13.650513,-260.85052,12.081295171927959,0.25757698338985296,261.9681401542355
11:05:13:63,0.7544403,-0.12867737,11.770157,0.13917542,0.152771,-0.27005005,18.974304,-14.7750855,-261.22512500000005,11.795013091830937,0.34005265103830445,262.33397634766453
11:05:13:64,0.2923584,-0.16459656,11.2625885,0.12319946,0.20283508,-0.2817688,17.999268,-15.899658,-261.59973,11.267584709330862,0.368393584738304,262.69981254109354
11:05:13:65,-0.021270752,-0.09275818,11.01358,0.055023193,0.22627258,-0.25300598,18.449402,-15.349833,-261.39984000000004,11.013991144959558,0.34385877645267693,262.5012095998338
11:05:13:66,-0.20083618,-0.09754944,11.068649,0.013473511,0.21774292,-0.22958374,18.899536,-14.800008,-261.19995,11.070900674725717,0.31670523895442765,262.3026066585742
11:05:13:67,-0.07154846,-0.11909485,11.399048,-0.07281494,0.13465881,-0.13583374,19.34967,-14.250183,-261.00006,11.399894651782047,0.20466024411254694,262.10400371731447
11:05:13:68,0.3857422,-0.14543152,11.688751,-0.04937744,0.04624939,-0.087890625,19.200134,-13.7252805,-261.00006,11.69601843842046,0.11091392887828078,262.0655570576366
11:05:13:69,0.7975464,-0.17416382,11.612137,0.024124146,-0.046432495,-0.068725586,19.050598,-13.200378,-261.00006,11.640796321692042,0.0863779901548869,262.0271103979588
11:05:13:70,1.0920258,-0.06642151,11.140472,0.057144165,-0.10183716,-0.07084656,19.34967,-15.449524,-262.5,11.194063093785042,0.13658513028234964,263.66521864086565
11:05:13:71,1.4008789,0.07003784,10.778961,0.07952881,-0.2690735,-0.10707092,18.674469000000002,-15.525055,-262.725065,10.869837497912197,0.3003157703683117,263.8459825057811
11:05:13:72,1.6666412,0.07243347,10.608963,0.011352539,-0.33192444,-0.15713501,17.999268,-15.600586,-262.95013,10.73932192610328,0.36741546698357735,264.0267463706965
11:05:13:73,1.8821106,-0.006576538,10.666428,-0.10902405,-0.31913757,-0.21786499,18.674469000000002,-15.900421,-262.875365,10.83120814316983,0.40149742954545486,264.0181206226416
11:05:13:74,1.9084473,-0.131073,11.011185,-0.2464447,-0.23712158,-0.28709412,19.34967,-16.200256,-262.8006,11.176114992806367,0.4465251029879068,264.0094948745867
11:05:13:75,1.5995941,-0.38485718,11.48764,-0.36895752,-0.10076904,-0.3478241,18.2998655,-16.6503905,-263.47504,11.604856272412528,0.5169774226481094,264.63670092517816
11:05:13:76,1.211731,-0.74638367,11.947327,-0.4456482,0.06434631,-0.37231445,17.250061,-17.100525,-264.14948,12.031791348096618,0.5842609138498472,265.2639069757696
11:05:13:77,0.883728,-1.1270599,12.428558,-0.45310974,0.22840881,-0.35421753,16.5748595,-17.40036,-264.22501,12.51080705452434,0.6188287966213147,265.31660922456615
11:05:13:78,0.5461426,-1.3353577,12.624878,-0.38493347,0.34344482,-0.29881287,15.899658,-17.700195,-264.30054,12.707045149890988,0.5961688116538052,265.3693114733627
11:05:13:79,0.57966614,-1.4071808,12.588974,-0.24964905,0.37434387,-0.21998596,16.275024000000002,-16.574859500000002,-264.30054,12.680632358460171,0.5008510794333991,265.322036142122
11:05:13:80,0.7831726,-1.4215393,12.153229,-0.060028076,0.33599854,-0.14329529,16.65039,-15.449524,-264.30054,12.261121825888374,0.3701782394017475,265.2747608108813
11:05:13:81,1.1016083,-1.3018341,11.391876,0.13703918,0.24650574,-0.092163086,16.574859500000002,-16.049957,-264.60037,11.51881728607272,0.2967134158225128,265.60502619252895
11:05:13:82,1.4320068,-1.0791779,10.228287,0.27978516,0.14318848,-0.07723999,16.499329,-16.65039,-264.9002,10.384272885930129,0.32364902690435526,265.9352915741766
11:05:13:83,1.745636,-0.8277893,9.179626,0.3298645,0.06329346,-0.09109497,17.249298500000002,-17.2500605,-264.9002,9.380725647281585,0.3480157237802949,266.0228058761921
11:05:13:84,1.9084473,-0.720047,8.466156,0.2872467,0.008956909,-0.13902283,17.999268,-17.849731,-264.9002,8.708411806720115,0.3192463627685258,266.1103201782076
11:05:13:85,1.8725433,-0.7104645,8.030411,0.18284607,-0.02406311,-0.20082092,17.6994325,-18.2998655,-264.60037,8.276392876432109,0.27265502101916883,265.82289329267064
11:05:13:86,1.6570587,-0.7511749,8.047165,0.049697876,-0.044311523,-0.26579285,17.399597,-18.75,-264.30054,8.250271013903768,0.27400589238301687,265.53546640713364
11:05:13:87,1.3434143,-0.937912,8.375183,-0.06321716,-0.04963684,-0.30413818,16.949463,-18.2998655,-264.74991,8.533939956706837,0.31457949351056497,265.9231864027702
11:05:13:88,1.1446991,-1.095932,8.882751,-0.118621826,-0.029388428,-0.31373596,16.499329,-17.849731,-265.19928,9.023007719500512,0.336697297139444,266.3109063984068
11:05:13:89,0.9531555,-1.1246643,9.105408,-0.12713623,0.0036315918,-0.30734253,17.174529999999997,-18.2998655,-265.87448,9.22398124680112,0.3326202642419966,267.05738308155685
11:05:13:90,0.7927551,-0.95947266,9.244278,-0.114349365,0.028137207,-0.29029846,17.849731,-18.75,-266.54968,9.327685896038068,0.3132741220912376,267.8038597647069
11:05:13:91,0.68740845,-0.83496094,9.21315,-0.07814026,0.043045044,-0.26046753,17.9244995,-19.4252015,-266.24984,9.276412187422306,0.27532183028254487,267.55951697461154
11:05:13:92,0.5653076,-0.69610596,8.973724,-0.034454346,0.06222534,-0.23384094,17.999268,-20.100403,-265.95,9.018417744723367,0.24441906659769183,267.3151741845162
11:05:13:93,0.49586487,-0.48780823,8.672058,0.0006866455,0.09738159,-0.21147156,17.549896500000003,-20.175171,-265.65017,8.69990970033137,0.23281723785365285,266.99296398347826
11:05:13:94,0.5413666,-0.33218384,8.205185,0.019866943,0.1485138,-0.1795044,17.100525,-20.249939,-265.35034,8.22973175646556,0.2338223125237736,266.6707537824404
11:05:13:95,0.57966614,-0.1023407,7.822113,0.018798828,0.1804657,-0.15820312,17.150370333333335,-19.799804666666667,-264.70031666666665,7.844229614022526,0.24072700718531354,265.99391753921805
11:05:13:96,0.55093384,0.14665222,7.7048035,0.013473511,0.16981506,-0.15394592,17.200215666666665,-19.349670333333336,-264.05029333333334,7.725867714587166,0.22960408617034045,265.31708129599565
11:05:13:97,0.4575653,0.23524475,7.688034,0.019866943,0.13572693,-0.1560669,17.250061,-18.899536,-263.40027,7.705230228962835,0.20778203056809352,264.6402450527733
11:05:13:98,0.4407959,0.34776306,7.5898743,0.037979126,0.07713318,-0.1560669,16.7251585,-18.524933,-264.15023499999995,7.610613119923904,0.1781819820976472,265.327639920719
11:05:13:99,0.3785553,0.45550537,7.4845276,0.051818848,0.016418457,-0.1560669,16.200256,-18.15033,-264.9002,7.507925322778503,0.16526232484724993,266.0150347886646
11:05:14:00,0.35221863,0.5488739,7.422287,0.05609131,-0.014480591,-0.15394592,16.049957,-20.4750065,-265.72494,7.450883493371057,0.16448485905356694,267.00505149246396
11:05:14:01,0.33306885,0.5847931,7.3696136,0.06248474,-0.10395813,-0.16566467,15.899658,-22.799683,-266.54968,7.400278538133068,0.2053202825153263,267.9950681962634
11:05:14:02,0.21095276,0.58958435,7.3935547,0.04862976,-0.1678772,-0.16778564,16.949463,-22.3495485,-266.474915,7.4200243850413745,0.24228006279450073,267.94957579785876
11:05:14:03,0.20617676,0.61831665,7.383972,0.02305603,-0.22540283,-0.16139221,17.999268,-21.899414,-266.40015,7.412682836383554,0.2781824252896899,267.9040833994542
11:05:14:04,0.21813965,0.6829529,7.4198914,-0.019546509,-0.24456787,-0.15820312,17.099762,-21.524811,-265.42511,7.45444819945209,0.2919310470439182,266.84637859554226
11:05:14:05,0.22772217,0.66619873,7.482132,-0.081329346,-0.20835876,-0.15394592,16.200256,-21.150208,-264.45007,7.515183124847133,0.2715274970867071,265.78867379163034
11:05:14:06,0.20857239,0.7044983,7.6186066,-0.17614746,-0.12739563,-0.14434814,16.200256,-21.749878,-265.42511,7.6539523660744555,0.26094819357299276,266.80754620532684
11:05:14:07,0.16546631,0.8313904,7.975342,-0.27627563,-0.05921936,-0.12837219,16.200256,-22.349548,-266.40015,8.020266149818296,0.31034589653498335,267.82641861902334
11:05:14:08,0.18701172,0.84576416,8.523621,-0.35617065,-0.017669678,-0.11453247,15.599823,-23.2498165,-266.92505,8.567520373445218,0.3745496444082508,268.3915384752938
11:05:14:09,0.28279114,0.84336853,9.208359,-0.3860016,0.0036315918,-0.10813904,14.99939,-24.150085,-267.44995,9.251222447824821,0.4008796273617349,268.9566583315643
11:05:14:10,0.16067505,0.8002777,9.806915,-0.37321472,0.0057678223,-0.103881836,15.074921,-24.0753175,-267.150115,9.84082530512735,0.387445390796553,268.6560420433175
11:05:14:11,0.09603882,0.7691498,10.146881,-0.32421875,0.01109314,-0.08576965,15.150452,-24.00055,-266.85028,10.176443823750418,0.33555519436859355,268.3554257550706
11:05:14:12,-0.07394409,0.7021179,10.245041,-0.2741394,0.026000977,-0.05168152,15.375519,-22.650147,-266.69998,10.269337971146307,0.28017751684748887,268.1047352498998
11:05:14:13,-0.16253662,0.7691498,10.268997,-0.2421875,0.03239441,-0.012268066,15.600586,-21.299744,-266.54968,10.299044079607102,0.24465217840615777,267.8540447447291
11:05:14:14,-0.37802124,0.81463623,10.43898,-0.22195435,0.030258179,0.03993225,14.400482,-22.5746155,-267.150115,10.477539581672778,0.22753873400012806,268.49429647235564
11:05:14:15,-0.41871643,0.7906952,10.721497,-0.19212341,0.04624939,0.109176636,13.200378,-23.849487,-267.75055,10.758764811495043,0.22576525107659215,269.1345481999822
11:05:14:16,-0.3804016,0.81703186,10.898666,-0.15270996,0.080337524,0.1816101,13.800048499999999,-23.549652000000002,-268.050385,10.935866084453194,0.25051283014580744,269.4373471998646
11:05:14:17,-0.22000122,1.0133514,11.118927,-0.10797119,0.1101532,0.24234009,14.399719,-23.249817,-268.35022,11.167175973719248,0.2872633366120087,269.7401461997469
11:05:14:18,-0.10507202,1.1139069,11.162033,-0.055770874,0.1293335,0.28494263,16.3497925,-23.9997865,-267.97486,11.217968149551124,0.317851926217682,269.55203915131585
11:05:14:19,-0.13619995,1.1713715,11.19075,-0.007827759,0.12719727,0.31370544,18.299866,-24.749756,-267.5995,11.252712880896421,0.33860230712741546,269.36393210288475
11:05:14:20,-0.16253662,1.1641846,11.20752,0.031585693,0.08885193,0.35205078,16.649628,-24.4499205,-267.90009,11.268995007813173,0.36446134660018964,269.53356324103976
11:05:14:21,0.03138733,1.1761627,11.351166,0.06993103,-0.0059509277,0.39041138,14.99939,-24.150085,-268.20068,11.411981134794773,0.3966696460921303,269.70319437919477
11:05:14:22,0.15829468,1.0780029,11.5858,0.11361694,-0.12846375,0.41064453,14.92462175,-24.0753175,-268.27545,11.636920086437165,0.4450176110424699,269.7667419318782
11:05:14:23,0.33546448,0.97984314,12.011963,0.15942383,-0.2509613,0.4319458,14.8498535,-24.00055,-268.35022,12.056528692360654,0.524380306463924,269.83028948456166
11:05:14:24,0.74487305,0.9175873,12.380676,0.20628357,-0.34257507,0.43940735,14.55001825,-24.0753175,-267.375185,12.436958652770121,0.5941291181817907,268.85107554602666
11:05:14:25,1.1135712,0.87210083,12.823608,0.2638092,-0.37026978,0.41596985,14.250183,-24.150085,-266.40015,12.90137677974022,0.616219052038243,267.8718616074917
11:05:14:26,1.2404633,0.8505554,13.18512,0.31600952,-0.35003662,0.36483765,14.624786499999999,-24.5246885,-267.825325,13.270628587279354,0.5962333124953497,269.34345292929413
11:05:14:27,1.206955,0.65182495,13.393417,0.38204956,-0.23712158,0.307312,14.99939,-24.899292,-269.2505,13.46347782236657,0.5446367370476307,270.81504425109654
11:05:14:28,0.75683594,0.3214264,12.972046,0.47047424,-0.03364563,0.2700348,15.074921,-25.5744935,-268.42499999999995,12.99808035814553,0.5435042153771344,270.0627068415919
11:05:14:29,0.5916443,0.2879181,12.65361,0.5567627,0.18792725,0.2711029,15.150452,-26.249695,-267.5995,12.6707058146786,0.6471461487116049,269.31036943208727
11:05:14:30,0.18940735,0.44354248,11.418213,0.60575867,0.33599854,0.27642822,15.525055,-26.399994,-268.199925,11.428394164937066,0.7458224627715828,269.943160293167
11:05:14:31,0.06011963,0.48184204,11.090195,0.5983124,0.39245605,0.2838745,15.899658,-26.550293,-268.80035,11.100820296691937,0.7697949148478525,270.5759511542467
11:05:14:32,-0.05718994,0.38128662,10.671219,0.5631561,0.40203857,0.3019867,15.2999875,-26.850127999999998,-267.900085,10.678181732944482,0.7549673977806889,269.67745032387785
11:05:14:33,-0.15534973,0.38607788,10.455734,0.5141449,0.3849945,0.3403473,14.700317,-27.149963,-266.99982,10.464012765033898,0.7269126686497835,268.778949493509
11:05:14:34,-0.1242218,0.34536743,10.436584,0.46728516,0.30403137,0.3722992,14.8498535,-28.050231500000002,-267.224885,10.443035732312518,0.6703709339022259,269.1045341365872
11:05:14:35,0.16546631,0.17298889,10.3025055,0.44277954,0.19750977,0.3968048,14.99939,-28.9505,-267.44995,10.305286208220455,0.6265124736117427,269.4301187796654
11:05:14:36,0.28279114,0.08201599,10.249832,0.41081238,0.061157227,0.41384888,15.599823,-28.575134,-267.974855,10.254060341138146,0.5863257741672698,269.9461544916777
11:05:14:37,0.641922,-0.04008484,10.3025055,0.37034607,-0.08265686,0.4191742,16.200256,-28.199768,-268.49976,10.322562192886613,0.5654161105019422,270.46219020368994
11:05:14:38,1.1710358,-0.13825989,10.391098,0.32240295,-0.20729065,0.39466858,16.200256,-28.8002015,-268.72483,10.457789359499857,0.5501603073517222,270.74944657396
11:05:14:39,1.5636902,-0.33218384,10.573059,0.2638092,-0.28504944,0.3254242,16.200256,-29.400635,-268.9499,10.693224479202437,0.5067044377095918,271.03670294423
11:05:14:40,1.6546631,-0.54766846,10.956131,0.20948792,-0.28611755,0.22741699,16.049957,-29.1000365,-268.65006,11.093901802600444,0.4212682380438727,270.6979055175412
11:05:14:41,1.3793335,-0.88523865,11.130905,0.18605042,-0.20089722,0.13368225,15.899658,-28.799438,-268.35022,11.250922383995949,0.30470542455126604,270.3591080908524
11:05:14:42,0.883728,-1.3281708,10.982468,0.18284607,-0.08265686,0.06762695,15.750122000000001,-29.699707,-268.87512,11.097730228428723,0.21175043373227595,270.9699325620431
11:05:14:43,0.33546448,-1.5556183,10.55629,0.17219543,0.008956909,0.04525757,15.600586,-30.599976,-269.40002,10.675567585694756,0.17826872965841228,271.5807570332338
11:05:14:44,-0.04283142,-1.7184296,10.106186,0.15942383,0.043045044,0.0473938,15.22521975,-31.199646,-269.40002,10.251333098055655,0.17179931799419587,271.6285960982678
11:05:14:45,-0.30140686,-1.9458771,9.61058,0.09017944,0.09524536,0.095336914,14.8498535,-31.799316,-269.40002,9.81022587507339,0.16215158701439403,271.6764351633018
11:05:14:46,-0.2966156,-1.9362946,9.404678,0.024124146,0.078201294,0.14859009,14.8498535,-31.799316,-269.40002,9.606517885052655,0.1696361743547403,271.6764351633018
11:05:14:47,-0.1194458,-1.8788452,9.349609,-0.053634644,0.021743774,0.20292664,14.8498535,-31.799316,-269.40002,9.537269789493305,0.21101821714359026,271.6764351633018
11:05:14:48,0.019424438,-1.8094025,9.744659,-0.1441803,-0.06135559,0.24020386,15.22521975,-31.424713,-269.249725,9.911240777121645,0.2867932385730837,271.50508055938803
11:05:14:49,0.08885193,-1.7902527,10.55629,-0.22088623,-0.14550781,0.2551117,15.600586,-31.05011,-269.09943,10.707388008259626,0.3674850049342136,271.3337259554742
11:05:14:50,0.12237549,-1.8525085,11.293701,-0.22407532,-0.20515442,0.26470947,15.600586,-32.324982,-268.19991500000003,11.44528050248337,0.40295060315914616,270.59446607707025
11:05:14:51,0.002670288,-2.000946,11.4804535,-0.14099121,-0.1870575,0.28068542,15.600586,-33.599854,-267.3004,11.653523269424412,0.3655862888622746,269.85520619866634
11:05:14:52,-0.05000305,-2.008133,11.4014435,-0.014221191,-0.11993408,0.31477356,15.22521975,-33.074951999999996,-267.67501000000004,11.577046788123065,0.3371480682044293,270.14097400446815
11:05:14:53,0.11039734,-1.7591248,10.482071,0.13171387,-0.02619934,0.3733673,14.8498535,-32.55005,-268.04962,10.629229515054,0.39678468931663996,270.4267418102699
11:05:14:54,0.33546448,-1.467041,9.435806,0.24569702,0.06222534,0.4244995,14.8498535,-32.55005,-268.04962,9.555060469858821,0.4944075687883894,270.4267418102699
11:05:14:55,0.6251526,-1.230011,8.370392,0.29470825,0.14956665,0.45751953,14.8498535,-32.55005,-268.04962,8.483348694181547,0.5643999076379318,270.4267418102699
11:05:14:56,0.87416077,-0.97862244,7.6545258,0.25315857,0.1847229,0.44473267,15.22521975,-32.324982500000004,-267.82456,7.76618465881054,0.5440578637554868,270.19788411572574
11:05:14:57,1.1159668,-0.83496094,7.271454,0.19244385,0.20709229,0.40638733,15.600586,-32.099915,-267.5995,7.403822319865863,0.4950479915773778,269.9690264211815
11:05:14:58,1.3027191,-0.7056732,7.015274,0.15621948,0.21774292,0.3765564,15.675353999999999,-32.250214,-268.04963,7.170015412380858,0.46218094673250737,270.43743926401316
11:05:14:59,1.3434143,-0.6362457,6.9027405,0.08911133,0.23052979,0.2945404,15.750122,-32.400513,-268.49976,7.060977055801359,0.38449819303082944,270.90585210684475
11:05:14:60,1.1901855,-0.59794617,7.0200653,0.007080078,0.1847229,0.19332886,15.450287,-31.8756105,-268.94989,7.14530600904482,0.2674859349532152,271.27337173807064
11:05:14:61,0.9028778,-0.6434326,7.678467,-0.06109619,0.09738159,0.098526,15.150452,-31.350708,-269.40002,7.758095726566192,0.15140439616947785,271.6408913692965
11:05:14:62,0.7688141,-0.93074036,8.265045,-0.08239746,0.015350342,0.034606934,16.725159,-33.075714,-269.100185,8.352743357132239,0.09067863196392478,271.65085775081525
11:05:14:63,0.720932,-1.1557922,8.487701,-0.028076172,-0.010223389,0.004776001,18.299866,-34.80072,-268.80035,8.596317049970054,0.03025887146558685,271.6608241323339
11:05:14:64,0.8214874,-1.040863,8.339264,0.052886963,-0.015548706,-0.009063721,16.874695000000003,-34.72519,-267.900085,8.444025189139582,0.055865411051952765,270.6712354561687
11:05:14:65,0.87176514,-0.83018494,7.9035187,0.1104126,-0.028320312,-0.03463745,15.449524,-34.64966,-266.99982,7.994672559596904,0.11913326677733571,269.6816467800035
11:05:14:66,0.94358826,-0.6697693,7.5898743,0.1104126,-0.036849976,-0.0697937,15.525055,-34.500123,-267.67502,7.677573940342927,0.13572038730290514,270.33545577089643
11:05:14:67,0.9986572,-0.5835724,7.6425476,0.011352539,-0.030456543,-0.14329529,15.600586,-34.350586,-268.35022,7.7295799864817605,0.14693543238253143,270.98926476178934
11:05:14:68,1.0369568,-0.585968,7.846054,-0.028076172,-0.017669678,-0.16992188,15.900167,-34.550476,-268.40006666666665,7.935943628391411,0.1731298190882543,271.08189483515906
11:05:14:69,1.1063843,-0.59555054,8.00647,-0.05470276,-0.00062561035,-0.19868469,16.199748,-34.750366,-268.4499133333333,8.104463494018637,0.20607860000573502,271.17452490852884
11:05:14:70,1.1686401,-0.7008972,8.32251,-0.08665466,0.101638794,-0.31799316,16.499329,-34.950256,-268.49976,8.433335595622639,0.34490451483312834,271.26715498189856
11:05:14:71,0.90527344,-0.65301514,8.430237,-0.10902405,0.10057068,-0.37445068,15.899658,-36.30066,-268.35022,8.503813535726643,0.40275801283962964,271.26071889420507
11:05:14:72,0.5772705,-0.7391968,8.490097,-0.13352966,0.054763794,-0.40428162,16.5000915,-35.700226,-268.87512,8.541744564707463,0.42927016144010577,271.7376646604151
11:05:14:73,0.4407959,-0.8134155,8.746277,-0.15270996,-0.0016937256,-0.4021454,17.100525,-35.099792,-269.40002,8.795072891217336,0.43016755262428813,272.2146104266251
11:05:14:74,0.57247925,-0.7511749,9.215546,-0.16442871,-0.0741272,-0.38723755,17.175293,-35.3996275,-269.17496,9.263815860658424,0.42718211875277107,272.0356548805197
11:05:14:75,0.66586304,-0.6817322,9.61058,-0.16975403,-0.13485718,-0.37765503,17.250061,-35.699463,-268.9499,9.65771092531532,0.43546091831884776,271.85669933441426
11:05:14:76,0.9196472,-0.53089905,10.1684265,-0.17082214,-0.18598938,-0.3787079,17.549895999999997,-36.0000615,-269.17496,10.223722524582765,0.4551833987629316,272.1384094913702
11:05:14:77,1.2667999,-0.45188904,10.721497,-0.14099121,-0.20942688,-0.39256287,17.849731,-36.30066,-269.40002,10.805530232807694,0.46673734183846427,272.4201196483262
11:05:14:78,1.4655151,-0.41119385,11.047104,-0.083465576,-0.19343567,-0.43197632,17.624664,-36.675263,-269.249725,11.151471726970472,0.4806114874262819,272.30739794352644
11:05:14:79,1.5134125,-0.39683533,11.037521,-0.02168274,-0.16680908,-0.48950195,17.399597,-37.049866,-269.09943,11.147859233939647,0.5175978839197051,272.1946762387267
11:05:14:80,1.4367981,-0.45428467,10.838806,-0.005706787,-0.13485718,-0.54063416,17.17453,-37.274933000000004,-268.27468999999996,10.943056193184637,0.5572291461995876,271.39609093234276
11:05:14:81,1.3601837,-0.53089905,10.659241,-0.03552246,-0.08265686,-0.5715332,16.949463,-37.5,-267.44995,10.758781166801265,0.5785708257177777,270.5975056259589
11:05:14:82,1.42482,-0.50935364,10.743042,-0.090927124,-0.020874023,-0.5928345,16.724396,-37.725066999999996,-268.350225,10.84907851279293,0.6001301618027258,271.50472944241943
11:05:14:83,1.5565033,-0.46626282,10.977676,-0.13139343,0.024932861,-0.6311798,16.499329,-37.950134,-269.2505,11.097273264239341,0.6451928556120644,272.41195325888
